Timestamp,Accelerometer X,Accelerometer Y,Accelerometer Z
14/04/2020 12:51:00.000,0.004,0.004,1.031
14/04/2020 12:51:00.034,0.039,0.031,1.000
14/04/2020 12:51:00.067,0.047,0.023,0.969
14/04/2020 12:51:00.100,0.020,0.051,0.988
14/04/2020 12:51:00.134,0.035,0.059,1.023
14/04/2020 12:51:00.167,0.047,0.117,1.047
14/04/2020 12:51:00.200,0.027,0.098,1.051
14/04/2020 12:51:00.234,0.012,0.082,1.043
14/04/2020 12:51:00.267,0.020,0.102,1.074
14/04/2020 12:51:00.300,0.031,0.078,1.094
14/04/2020 12:51:00.334,0.031,0.094,1.113
14/04/2020 12:51:00.367,0.031,0.102,1.094
14/04/2020 12:51:00.400,0.012,0.090,1.035
14/04/2020 12:51:00.434,-0.012,0.102,0.988
14/04/2020 12:51:00.467,-0.035,0.121,0.949
14/04/2020 12:51:00.500,-0.059,0.121,0.918
14/04/2020 12:51:00.534,-0.078,0.113,0.867
14/04/2020 12:51:00.567,-0.098,0.121,0.828
14/04/2020 12:51:00.600,-0.121,0.156,0.746
14/04/2020 12:51:00.634,-0.184,0.184,0.730
14/04/2020 12:51:00.667,-0.281,0.188,0.703
14/04/2020 12:51:00.700,-0.387,0.277,0.652
14/04/2020 12:51:00.734,-0.527,0.477,0.648
14/04/2020 12:51:00.767,-0.660,0.449,0.672
14/04/2020 12:51:00.800,-0.867,0.355,0.617
14/04/2020 12:51:00.834,-1.074,0.492,0.477
14/04/2020 12:51:00.867,-1.238,0.535,0.465
14/04/2020 12:51:00.900,-1.320,0.406,0.430
14/04/2020 12:51:00.934,-1.285,0.457,0.348
14/04/2020 12:51:00.967,-1.176,0.449,0.363
14/04/2020 12:51:01.000,-1.145,0.477,0.414
14/04/2020 12:51:01.034,-1.109,0.559,0.461
14/04/2020 12:51:01.067,-0.969,0.465,0.449
14/04/2020 12:51:01.100,-0.844,0.402,0.418
14/04/2020 12:51:01.134,-0.766,0.488,0.422
14/04/2020 12:51:01.167,-0.711,0.469,0.414
14/04/2020 12:51:01.200,-0.691,0.422,0.387
14/04/2020 12:51:01.234,-0.719,0.484,0.352
14/04/2020 12:51:01.267,-0.797,0.500,0.363
14/04/2020 12:51:01.300,-0.863,0.457,0.355
14/04/2020 12:51:01.334,-0.941,0.430,0.387
14/04/2020 12:51:01.367,-0.984,0.430,0.371
14/04/2020 12:51:01.400,-1.023,0.422,0.375
14/04/2020 12:51:01.434,-1.145,0.426,0.391
14/04/2020 12:51:01.467,-1.223,0.383,0.387
14/04/2020 12:51:01.500,-1.430,0.410,0.441
14/04/2020 12:51:01.534,-1.445,0.445,0.449
14/04/2020 12:51:01.567,-1.242,0.348,0.359
14/04/2020 12:51:01.600,-1.098,0.316,0.344
14/04/2020 12:51:01.634,-1.105,0.371,0.309
14/04/2020 12:51:01.667,-1.047,0.367,0.270
14/04/2020 12:51:01.700,-0.906,0.348,0.207
14/04/2020 12:51:01.734,-0.781,0.289,0.176
14/04/2020 12:51:01.767,-0.656,0.309,0.141
14/04/2020 12:51:01.800,-0.617,0.281,0.176
14/04/2020 12:51:01.834,-0.566,0.258,0.160
14/04/2020 12:51:01.867,-0.559,0.301,0.160
14/04/2020 12:51:01.900,-0.570,0.344,0.168
14/04/2020 12:51:01.934,-0.613,0.359,0.199
14/04/2020 12:51:01.967,-0.676,0.375,0.199
14/04/2020 12:51:02.000,-0.793,0.441,0.215
14/04/2020 12:51:02.034,-0.957,0.445,0.238
14/04/2020 12:51:02.067,-1.070,0.422,0.258
14/04/2020 12:51:02.100,-1.305,0.445,0.246
14/04/2020 12:51:02.134,-1.496,0.359,0.234
14/04/2020 12:51:02.167,-1.305,0.430,0.207
14/04/2020 12:51:02.200,-0.977,0.398,0.160
14/04/2020 12:51:02.234,-0.984,0.402,0.184
14/04/2020 12:51:02.267,-1.113,0.387,0.250
14/04/2020 12:51:02.300,-1.090,0.422,0.293
14/04/2020 12:51:02.334,-0.930,0.395,0.254
14/04/2020 12:51:02.367,-0.762,0.418,0.270
14/04/2020 12:51:02.400,-0.688,0.387,0.285
14/04/2020 12:51:02.434,-0.691,0.406,0.273
14/04/2020 12:51:02.467,-0.750,0.461,0.254
14/04/2020 12:51:02.500,-0.824,0.445,0.285
14/04/2020 12:51:02.534,-0.840,0.430,0.285
14/04/2020 12:51:02.567,-0.867,0.438,0.262
14/04/2020 12:51:02.600,-0.918,0.438,0.273
14/04/2020 12:51:02.634,-1.035,0.453,0.285
14/04/2020 12:51:02.667,-1.137,0.406,0.258
14/04/2020 12:51:02.700,-1.375,0.465,0.277
14/04/2020 12:51:02.734,-1.648,0.520,0.328
14/04/2020 12:51:02.767,-1.434,0.332,0.172
14/04/2020 12:51:02.800,-1.070,0.195,0.148
14/04/2020 12:51:02.834,-1.117,0.371,0.152
14/04/2020 12:51:02.867,-1.203,0.512,0.094
14/04/2020 12:51:02.900,-1.125,0.480,0.020
14/04/2020 12:51:02.934,-1.070,0.344,0.016
14/04/2020 12:51:02.967,-0.867,0.281,0.020
14/04/2020 12:51:03.000,-0.691,0.313,0.016
14/04/2020 12:51:03.034,-0.590,0.336,0.000
14/04/2020 12:51:03.067,-0.531,0.320,0.004
14/04/2020 12:51:03.100,-0.504,0.313,0.020
14/04/2020 12:51:03.134,-0.496,0.320,0.043
14/04/2020 12:51:03.167,-0.539,0.395,0.055
14/04/2020 12:51:03.200,-0.629,0.449,0.055
14/04/2020 12:51:03.234,-0.727,0.484,0.063
14/04/2020 12:51:03.267,-0.824,0.469,0.113
14/04/2020 12:51:03.300,-0.965,0.504,0.148
14/04/2020 12:51:03.334,-1.211,0.559,0.141
14/04/2020 12:51:03.367,-1.414,0.543,0.184
14/04/2020 12:51:03.400,-1.254,0.516,0.234
14/04/2020 12:51:03.434,-0.953,0.398,0.211
14/04/2020 12:51:03.467,-0.922,0.426,0.215
14/04/2020 12:51:03.500,-1.148,0.523,0.250
14/04/2020 12:51:03.534,-1.184,0.547,0.258
14/04/2020 12:51:03.567,-0.980,0.480,0.254
14/04/2020 12:51:03.600,-0.762,0.508,0.246
14/04/2020 12:51:03.634,-0.695,0.547,0.246
14/04/2020 12:51:03.667,-0.707,0.555,0.227
14/04/2020 12:51:03.700,-0.785,0.496,0.250
14/04/2020 12:51:03.734,-0.867,0.480,0.266
14/04/2020 12:51:03.767,-0.902,0.441,0.246
14/04/2020 12:51:03.800,-0.922,0.434,0.219
14/04/2020 12:51:03.834,-0.941,0.449,0.184
14/04/2020 12:51:03.867,-1.020,0.414,0.176
14/04/2020 12:51:03.900,-1.059,0.352,0.090
14/04/2020 12:51:03.934,-1.023,0.363,0.000
14/04/2020 12:51:03.967,-1.379,0.652,-0.109
14/04/2020 12:51:04.000,-1.555,0.582,-0.129
14/04/2020 12:51:04.034,-1.195,0.418,-0.246
14/04/2020 12:51:04.067,-1.000,0.254,-0.281
14/04/2020 12:51:04.100,-0.906,0.367,-0.293
14/04/2020 12:51:04.134,-0.848,0.453,-0.293
14/04/2020 12:51:04.167,-0.789,0.449,-0.289
14/04/2020 12:51:04.200,-0.738,0.414,-0.273
14/04/2020 12:51:04.234,-0.805,0.430,-0.281
14/04/2020 12:51:04.267,-0.832,0.496,-0.289
14/04/2020 12:51:04.300,-0.844,0.477,-0.277
14/04/2020 12:51:04.334,-0.910,0.406,-0.254
14/04/2020 12:51:04.367,-0.895,0.391,-0.230
14/04/2020 12:51:04.400,-0.930,0.383,-0.234
14/04/2020 12:51:04.434,-0.879,0.281,-0.199
14/04/2020 12:51:04.467,-0.895,0.254,-0.148
14/04/2020 12:51:04.500,-0.945,0.184,-0.082
14/04/2020 12:51:04.534,-1.000,0.176,-0.039
14/04/2020 12:51:04.567,-1.043,0.141,0.023
14/04/2020 12:51:04.600,-1.031,0.133,0.082
14/04/2020 12:51:04.634,-1.039,0.137,0.145
14/04/2020 12:51:04.667,-1.074,0.145,0.199
14/04/2020 12:51:04.700,-1.230,0.195,0.223
14/04/2020 12:51:04.734,-1.188,0.281,0.285
14/04/2020 12:51:04.767,-0.984,0.336,0.313
14/04/2020 12:51:04.800,-0.832,0.344,0.254
14/04/2020 12:51:04.834,-0.871,0.363,0.199
14/04/2020 12:51:04.867,-0.941,0.355,0.215
14/04/2020 12:51:04.900,-0.941,0.395,0.199
14/04/2020 12:51:04.934,-0.945,0.430,0.152
14/04/2020 12:51:04.967,-0.984,0.430,0.121
14/04/2020 12:51:05.000,-0.953,0.383,0.070
14/04/2020 12:51:05.034,-0.980,0.344,0.012
14/04/2020 12:51:05.067,-0.996,0.355,0.027
14/04/2020 12:51:05.100,-1.055,0.438,0.020
14/04/2020 12:51:05.134,-1.047,0.387,-0.016
14/04/2020 12:51:05.167,-0.984,0.402,0.020
14/04/2020 12:51:05.200,-1.020,0.465,0.055
14/04/2020 12:51:05.234,-1.000,0.438,0.035
14/04/2020 12:51:05.267,-0.938,0.422,0.043
14/04/2020 12:51:05.300,-0.926,0.406,0.078
14/04/2020 12:51:05.334,-0.922,0.422,0.090
14/04/2020 12:51:05.367,-0.934,0.430,0.117
14/04/2020 12:51:05.400,-0.949,0.398,0.113
14/04/2020 12:51:05.434,-1.000,0.445,0.129
14/04/2020 12:51:05.467,-0.941,0.453,0.188
14/04/2020 12:51:05.500,-0.793,0.422,0.188
14/04/2020 12:51:05.534,-0.668,0.375,0.148
14/04/2020 12:51:05.567,-0.770,0.406,0.117
14/04/2020 12:51:05.600,-0.859,0.422,0.113
14/04/2020 12:51:05.634,-0.863,0.398,0.117
14/04/2020 12:51:05.667,-0.809,0.344,0.098
14/04/2020 12:51:05.700,-0.836,0.340,0.094
14/04/2020 12:51:05.734,-0.852,0.348,0.090
14/04/2020 12:51:05.767,-0.863,0.352,0.059
14/04/2020 12:51:05.800,-0.930,0.348,0.043
14/04/2020 12:51:05.834,-0.926,0.355,0.059
14/04/2020 12:51:05.867,-1.012,0.348,0.047
14/04/2020 12:51:05.900,-1.078,0.332,0.043
14/04/2020 12:51:05.934,-1.102,0.336,0.055
14/04/2020 12:51:05.967,-1.137,0.363,0.059
14/04/2020 12:51:06.000,-1.109,0.426,0.074
14/04/2020 12:51:06.034,-1.168,0.449,0.055
14/04/2020 12:51:06.067,-1.270,0.512,0.117
14/04/2020 12:51:06.100,-1.078,0.453,0.203
14/04/2020 12:51:06.134,-0.734,0.313,0.184
14/04/2020 12:51:06.167,-0.586,0.305,0.164
14/04/2020 12:51:06.200,-0.746,0.465,0.207
14/04/2020 12:51:06.234,-0.957,0.547,0.223
14/04/2020 12:51:06.267,-0.992,0.473,0.242
14/04/2020 12:51:06.300,-0.906,0.387,0.238
14/04/2020 12:51:06.334,-0.887,0.336,0.227
14/04/2020 12:51:06.367,-0.863,0.348,0.195
14/04/2020 12:51:06.400,-0.887,0.391,0.184
14/04/2020 12:51:06.434,-0.898,0.398,0.180
14/04/2020 12:51:06.467,-0.867,0.391,0.195
14/04/2020 12:51:06.500,-0.934,0.480,0.211
14/04/2020 12:51:06.534,-0.980,0.473,0.172
14/04/2020 12:51:06.567,-0.926,0.465,0.191
14/04/2020 12:51:06.600,-0.863,0.457,0.199
14/04/2020 12:51:06.634,-0.855,0.496,0.168
14/04/2020 12:51:06.667,-1.000,0.586,0.141
14/04/2020 12:51:06.700,-1.016,0.594,0.176
14/04/2020 12:51:06.734,-0.805,0.480,0.164
14/04/2020 12:51:06.767,-0.660,0.395,0.141
14/04/2020 12:51:06.800,-0.715,0.387,0.117
14/04/2020 12:51:06.834,-0.820,0.418,0.113
14/04/2020 12:51:06.867,-0.875,0.418,0.098
14/04/2020 12:51:06.900,-0.828,0.359,0.090
14/04/2020 12:51:06.934,-0.801,0.336,0.098
14/04/2020 12:51:06.967,-0.820,0.332,0.121
14/04/2020 12:51:07.000,-0.867,0.340,0.098
14/04/2020 12:51:07.034,-0.883,0.332,0.082
14/04/2020 12:51:07.067,-0.895,0.348,0.109
14/04/2020 12:51:07.100,-0.949,0.371,0.105
14/04/2020 12:51:07.134,-1.059,0.363,0.086
14/04/2020 12:51:07.167,-1.137,0.344,0.094
14/04/2020 12:51:07.200,-1.137,0.383,0.121
14/04/2020 12:51:07.234,-1.105,0.438,0.109
14/04/2020 12:51:07.267,-1.277,0.473,0.086
14/04/2020 12:51:07.300,-1.168,0.461,0.113
14/04/2020 12:51:07.334,-0.871,0.402,0.141
14/04/2020 12:51:07.367,-0.723,0.375,0.148
14/04/2020 12:51:07.400,-0.777,0.449,0.148
14/04/2020 12:51:07.434,-0.867,0.484,0.191
14/04/2020 12:51:07.467,-0.859,0.418,0.246
14/04/2020 12:51:07.500,-0.813,0.371,0.242
14/04/2020 12:51:07.534,-0.848,0.367,0.223
14/04/2020 12:51:07.567,-0.848,0.367,0.207
14/04/2020 12:51:07.600,-0.855,0.398,0.180
14/04/2020 12:51:07.634,-0.934,0.391,0.184
14/04/2020 12:51:07.667,-0.918,0.363,0.156
14/04/2020 12:51:07.700,-0.938,0.348,0.156
14/04/2020 12:51:07.734,-0.977,0.367,0.172
14/04/2020 12:51:07.767,-1.020,0.477,0.152
14/04/2020 12:51:07.800,-1.023,0.445,0.141
14/04/2020 12:51:07.834,-1.051,0.410,0.121
14/04/2020 12:51:07.867,-1.250,0.492,0.184
14/04/2020 12:51:07.900,-1.086,0.512,0.199
14/04/2020 12:51:07.934,-0.828,0.422,0.125
14/04/2020 12:51:07.967,-0.836,0.363,0.070
14/04/2020 12:51:08.000,-0.891,0.383,0.074
14/04/2020 12:51:08.034,-0.883,0.375,0.086
14/04/2020 12:51:08.067,-0.813,0.344,0.082
14/04/2020 12:51:08.100,-0.805,0.301,0.047
14/04/2020 12:51:08.134,-0.805,0.297,0.039
14/04/2020 12:51:08.167,-0.844,0.285,0.004
14/04/2020 12:51:08.200,-0.906,0.266,-0.047
14/04/2020 12:51:08.234,-0.953,0.289,-0.105
14/04/2020 12:51:08.267,-1.016,0.281,-0.160
14/04/2020 12:51:08.300,-1.066,0.262,-0.211
14/04/2020 12:51:08.334,-1.098,0.277,-0.242
14/04/2020 12:51:08.367,-1.207,0.289,-0.250
14/04/2020 12:51:08.400,-1.426,0.305,-0.254
14/04/2020 12:51:08.434,-1.309,0.301,-0.215
14/04/2020 12:51:08.467,-1.039,0.270,-0.172
14/04/2020 12:51:08.500,-0.930,0.262,-0.113
14/04/2020 12:51:08.534,-0.902,0.336,-0.082
14/04/2020 12:51:08.567,-0.949,0.406,0.020
14/04/2020 12:51:08.600,-0.953,0.414,0.047
14/04/2020 12:51:08.634,-0.906,0.391,0.098
14/04/2020 12:51:08.667,-0.836,0.410,0.215
14/04/2020 12:51:08.700,-0.840,0.391,0.355
14/04/2020 12:51:08.734,-0.844,0.445,0.383
14/04/2020 12:51:08.767,-0.813,0.563,0.320
14/04/2020 12:51:08.800,-0.785,0.629,0.391
14/04/2020 12:51:08.834,-0.879,0.590,0.473
14/04/2020 12:51:08.867,-0.914,0.551,0.418
14/04/2020 12:51:08.900,-0.891,0.547,0.395
14/04/2020 12:51:08.934,-0.883,0.578,0.406
14/04/2020 12:51:08.967,-0.824,0.590,0.371
14/04/2020 12:51:09.000,-0.797,0.563,0.316
14/04/2020 12:51:09.034,-0.727,0.527,0.316
14/04/2020 12:51:09.067,-0.688,0.512,0.301
14/04/2020 12:51:09.100,-0.648,0.539,0.270
14/04/2020 12:51:09.134,-0.574,0.496,0.242
14/04/2020 12:51:09.167,-0.539,0.512,0.223
14/04/2020 12:51:09.200,-0.645,0.586,0.211
14/04/2020 12:51:09.234,-0.695,0.613,0.148
14/04/2020 12:51:09.267,-0.730,0.629,0.102
14/04/2020 12:51:09.300,-0.730,0.598,0.098
14/04/2020 12:51:09.334,-0.746,0.547,0.090
14/04/2020 12:51:09.367,-0.707,0.516,0.078
14/04/2020 12:51:09.400,-0.672,0.523,0.047
14/04/2020 12:51:09.434,-0.672,0.543,0.016
14/04/2020 12:51:09.467,-0.695,0.531,0.008
14/04/2020 12:51:09.500,-0.758,0.500,0.008
14/04/2020 12:51:09.534,-0.824,0.520,0.000
14/04/2020 12:51:09.567,-0.883,0.535,-0.004
14/04/2020 12:51:09.600,-0.938,0.512,-0.004
14/04/2020 12:51:09.634,-0.977,0.480,0.016
14/04/2020 12:51:09.667,-0.980,0.453,0.008
14/04/2020 12:51:09.700,-1.078,0.434,-0.020
14/04/2020 12:51:09.734,-1.141,0.453,-0.012
14/04/2020 12:51:09.767,-1.168,0.445,-0.020
14/04/2020 12:51:09.800,-1.152,0.387,-0.047
14/04/2020 12:51:09.834,-1.156,0.363,-0.027
14/04/2020 12:51:09.867,-1.340,0.352,-0.043
14/04/2020 12:51:09.900,-1.434,0.352,-0.047
14/04/2020 12:51:09.934,-1.152,0.344,0.000
14/04/2020 12:51:09.967,-0.836,0.297,0.035
14/04/2020 12:51:10.000,-0.598,0.230,0.051
14/04/2020 12:51:10.034,-0.570,0.258,0.078
14/04/2020 12:51:10.067,-0.613,0.316,0.145
14/04/2020 12:51:10.100,-0.777,0.348,0.250
14/04/2020 12:51:10.134,-0.777,0.359,0.227
14/04/2020 12:51:10.167,-0.742,0.379,0.234
14/04/2020 12:51:10.200,-0.738,0.414,0.320
14/04/2020 12:51:10.234,-0.809,0.410,0.324
14/04/2020 12:51:10.267,-0.906,0.441,0.305
14/04/2020 12:51:10.300,-0.957,0.430,0.301
14/04/2020 12:51:10.334,-1.012,0.418,0.273
14/04/2020 12:51:10.367,-1.070,0.434,0.262
14/04/2020 12:51:10.400,-1.102,0.445,0.273
14/04/2020 12:51:10.434,-1.086,0.402,0.234
14/04/2020 12:51:10.467,-1.074,0.375,0.211
14/04/2020 12:51:10.500,-1.270,0.426,0.195
14/04/2020 12:51:10.534,-1.445,0.531,0.238
14/04/2020 12:51:10.567,-1.176,0.426,0.195
14/04/2020 12:51:10.600,-0.793,0.262,0.133
14/04/2020 12:51:10.634,-0.773,0.219,0.102
14/04/2020 12:51:10.667,-0.906,0.301,0.082
14/04/2020 12:51:10.700,-0.938,0.363,0.066
14/04/2020 12:51:10.734,-0.863,0.355,0.055
14/04/2020 12:51:10.767,-0.738,0.281,0.031
14/04/2020 12:51:10.800,-0.676,0.262,0.023
14/04/2020 12:51:10.834,-0.688,0.285,0.016
14/04/2020 12:51:10.867,-0.688,0.313,0.016
14/04/2020 12:51:10.900,-0.734,0.344,0.012
14/04/2020 12:51:10.934,-0.750,0.359,0.020
14/04/2020 12:51:10.967,-0.859,0.387,0.027
14/04/2020 12:51:11.000,-1.047,0.391,0.043
14/04/2020 12:51:11.034,-1.160,0.402,0.070
14/04/2020 12:51:11.067,-1.227,0.430,0.102
14/04/2020 12:51:11.100,-1.262,0.445,0.121
14/04/2020 12:51:11.134,-1.438,0.441,0.121
14/04/2020 12:51:11.167,-1.332,0.398,0.152
14/04/2020 12:51:11.200,-0.992,0.336,0.168
14/04/2020 12:51:11.234,-0.691,0.348,0.145
14/04/2020 12:51:11.267,-0.703,0.430,0.109
14/04/2020 12:51:11.300,-0.813,0.539,0.117
14/04/2020 12:51:11.334,-0.883,0.500,0.172
14/04/2020 12:51:11.367,-0.797,0.410,0.180
14/04/2020 12:51:11.400,-0.738,0.348,0.215
14/04/2020 12:51:11.434,-0.742,0.355,0.230
14/04/2020 12:51:11.467,-0.797,0.402,0.195
14/04/2020 12:51:11.500,-0.863,0.414,0.207
14/04/2020 12:51:11.534,-0.863,0.395,0.207
14/04/2020 12:51:11.567,-0.867,0.387,0.219
14/04/2020 12:51:11.600,-0.953,0.469,0.203
14/04/2020 12:51:11.634,-0.984,0.258,0.270
14/04/2020 12:51:11.667,-1.008,0.391,0.215
14/04/2020 12:51:11.700,-0.992,0.348,0.184
14/04/2020 12:51:11.734,-1.008,0.426,0.109
14/04/2020 12:51:11.767,-1.238,0.516,0.125
14/04/2020 12:51:11.800,-1.254,0.527,0.164
14/04/2020 12:51:11.834,-1.008,0.426,0.121
14/04/2020 12:51:11.867,-0.773,0.328,0.117
14/04/2020 12:51:11.900,-0.773,0.336,0.090
14/04/2020 12:51:11.934,-0.895,0.359,0.047
14/04/2020 12:51:11.967,-0.945,0.367,0.047
14/04/2020 12:51:12.000,-0.863,0.348,0.055
14/04/2020 12:51:12.034,-0.773,0.309,0.051
14/04/2020 12:51:12.067,-0.750,0.309,0.035
14/04/2020 12:51:12.100,-0.754,0.320,0.031
14/04/2020 12:51:12.134,-0.762,0.320,0.035
14/04/2020 12:51:12.167,-0.793,0.336,0.035
14/04/2020 12:51:12.200,-0.836,0.352,0.035
14/04/2020 12:51:12.234,-0.887,0.375,0.047
14/04/2020 12:51:12.267,-0.965,0.387,0.063
14/04/2020 12:51:12.300,-1.008,0.402,0.098
14/04/2020 12:51:12.334,-1.020,0.406,0.117
14/04/2020 12:51:12.367,-1.051,0.418,0.141
14/04/2020 12:51:12.400,-1.102,0.465,0.172
14/04/2020 12:51:12.434,-1.238,0.496,0.160
14/04/2020 12:51:12.467,-1.305,0.488,0.184
14/04/2020 12:51:12.500,-1.066,0.430,0.211
14/04/2020 12:51:12.534,-0.699,0.359,0.176
14/04/2020 12:51:12.567,-0.543,0.367,0.133
14/04/2020 12:51:12.600,-0.664,0.480,0.086
14/04/2020 12:51:12.634,-0.895,0.543,0.094
14/04/2020 12:51:12.667,-1.074,0.512,0.145
14/04/2020 12:51:12.700,-0.996,0.398,0.160
14/04/2020 12:51:12.734,-0.883,0.332,0.156
14/04/2020 12:51:12.767,-0.840,0.348,0.145
14/04/2020 12:51:12.800,-0.840,0.379,0.109
14/04/2020 12:51:12.834,-0.906,0.438,0.090
14/04/2020 12:51:12.867,-0.926,0.410,0.086
14/04/2020 12:51:12.900,-0.902,0.414,0.063
14/04/2020 12:51:12.934,-0.871,0.438,0.035
14/04/2020 12:51:12.967,-0.844,0.449,0.012
14/04/2020 12:51:13.000,-0.879,0.449,0.004
14/04/2020 12:51:13.034,-0.871,0.414,-0.004
14/04/2020 12:51:13.067,-0.844,0.391,0.012
14/04/2020 12:51:13.100,-0.840,0.387,0.012
14/04/2020 12:51:13.134,-0.863,0.387,0.020
14/04/2020 12:51:13.167,-0.930,0.395,0.004
14/04/2020 12:51:13.200,-1.254,0.488,0.020
14/04/2020 12:51:13.234,-1.336,0.473,0.070
14/04/2020 12:51:13.267,-0.980,0.328,0.031
14/04/2020 12:51:13.300,-0.781,0.223,0.020
14/04/2020 12:51:13.334,-0.809,0.285,0.020
14/04/2020 12:51:13.367,-0.875,0.371,-0.020
14/04/2020 12:51:13.400,-0.910,0.410,-0.055
14/04/2020 12:51:13.434,-0.957,0.391,-0.070
14/04/2020 12:51:13.467,-0.887,0.324,-0.063
14/04/2020 12:51:13.500,-0.895,0.289,-0.059
14/04/2020 12:51:13.534,-0.945,0.281,-0.066
14/04/2020 12:51:13.567,-0.949,0.305,-0.059
14/04/2020 12:51:13.600,-1.000,0.336,-0.055
14/04/2020 12:51:13.634,-1.020,0.328,-0.043
14/04/2020 12:51:13.667,-1.027,0.316,-0.035
14/04/2020 12:51:13.700,-1.039,0.277,-0.020
14/04/2020 12:51:13.734,-0.980,0.270,-0.008
14/04/2020 12:51:13.767,-0.895,0.316,0.012
14/04/2020 12:51:13.800,-0.836,0.348,0.035
14/04/2020 12:51:13.834,-0.852,0.359,0.047
14/04/2020 12:51:13.867,-1.020,0.395,0.051
14/04/2020 12:51:13.900,-1.016,0.418,0.105
14/04/2020 12:51:13.934,-0.840,0.406,0.137
14/04/2020 12:51:13.967,-0.762,0.332,0.109
14/04/2020 12:51:14.000,-0.945,0.406,0.082
14/04/2020 12:51:14.034,-1.090,0.430,0.129
14/04/2020 12:51:14.067,-1.047,0.414,0.152
14/04/2020 12:51:14.100,-0.926,0.438,0.113
14/04/2020 12:51:14.134,-0.898,0.457,0.082
14/04/2020 12:51:14.167,-0.859,0.410,0.063
14/04/2020 12:51:14.200,-0.855,0.406,0.074
14/04/2020 12:51:14.234,-0.863,0.414,0.078
14/04/2020 12:51:14.267,-0.859,0.418,0.059
14/04/2020 12:51:14.300,-0.855,0.410,0.066
14/04/2020 12:51:14.334,-0.879,0.387,0.090
14/04/2020 12:51:14.367,-0.852,0.340,0.109
14/04/2020 12:51:14.400,-0.793,0.324,0.133
14/04/2020 12:51:14.434,-0.848,0.328,0.152
14/04/2020 12:51:14.467,-0.887,0.328,0.191
14/04/2020 12:51:14.500,-0.852,0.336,0.191
14/04/2020 12:51:14.534,-0.840,0.332,0.203
14/04/2020 12:51:14.567,-0.863,0.359,0.195
14/04/2020 12:51:14.600,-0.996,0.422,0.195
14/04/2020 12:51:14.634,-1.137,0.469,0.207
14/04/2020 12:51:14.667,-1.215,0.480,0.195
14/04/2020 12:51:14.700,-1.086,0.434,0.219
14/04/2020 12:51:14.734,-0.852,0.371,0.227
14/04/2020 12:51:14.767,-0.805,0.332,0.176
14/04/2020 12:51:14.800,-0.918,0.332,0.125
14/04/2020 12:51:14.834,-1.020,0.297,0.105
14/04/2020 12:51:14.867,-0.949,0.273,0.121
14/04/2020 12:51:14.900,-0.941,0.277,0.102
14/04/2020 12:51:14.934,-0.875,0.258,0.066
14/04/2020 12:51:14.967,-0.820,0.293,0.035
14/04/2020 12:51:15.000,-0.832,0.309,0.023
14/04/2020 12:51:15.034,-0.828,0.340,0.020
14/04/2020 12:51:15.067,-0.816,0.387,0.031
14/04/2020 12:51:15.100,-0.840,0.395,0.008
14/04/2020 12:51:15.134,-0.879,0.414,0.012
14/04/2020 12:51:15.167,-0.918,0.441,0.035
14/04/2020 12:51:15.200,-0.914,0.488,0.074
14/04/2020 12:51:15.234,-1.047,0.520,0.059
14/04/2020 12:51:15.267,-1.438,0.594,0.109
14/04/2020 12:51:15.300,-1.422,0.492,0.195
14/04/2020 12:51:15.334,-1.000,0.293,0.207
14/04/2020 12:51:15.367,-0.691,0.289,0.211
14/04/2020 12:51:15.400,-0.766,0.363,0.145
14/04/2020 12:51:15.434,-0.969,0.438,0.121
14/04/2020 12:51:15.467,-1.113,0.426,0.160
14/04/2020 12:51:15.500,-1.027,0.395,0.184
14/04/2020 12:51:15.534,-0.879,0.320,0.191
14/04/2020 12:51:15.567,-0.828,0.320,0.184
14/04/2020 12:51:15.600,-0.809,0.336,0.168
14/04/2020 12:51:15.634,-0.797,0.320,0.164
14/04/2020 12:51:15.667,-0.762,0.316,0.211
14/04/2020 12:51:15.700,-0.707,0.371,0.219
14/04/2020 12:51:15.734,-0.695,0.383,0.203
14/04/2020 12:51:15.767,-0.660,0.395,0.215
14/04/2020 12:51:15.800,-0.656,0.422,0.219
14/04/2020 12:51:15.834,-0.707,0.449,0.219
14/04/2020 12:51:15.867,-0.867,0.500,0.184
14/04/2020 12:51:15.900,-1.211,0.609,0.219
14/04/2020 12:51:15.934,-1.203,0.617,0.266
14/04/2020 12:51:15.967,-0.926,0.500,0.250
14/04/2020 12:51:16.000,-0.820,0.398,0.172
14/04/2020 12:51:16.034,-0.973,0.383,0.141
14/04/2020 12:51:16.067,-1.039,0.418,0.141
14/04/2020 12:51:16.100,-0.969,0.371,0.133
14/04/2020 12:51:16.134,-0.844,0.324,0.113
14/04/2020 12:51:16.167,-0.824,0.355,0.090
14/04/2020 12:51:16.200,-0.852,0.375,0.051
14/04/2020 12:51:16.234,-0.840,0.383,0.035
14/04/2020 12:51:16.267,-0.828,0.387,0.043
14/04/2020 12:51:16.300,-0.824,0.414,0.051
14/04/2020 12:51:16.334,-0.891,0.414,0.051
14/04/2020 12:51:16.367,-0.906,0.398,0.047
14/04/2020 12:51:16.400,-0.918,0.430,0.066
14/04/2020 12:51:16.434,-0.945,0.484,0.098
14/04/2020 12:51:16.467,-1.055,0.547,0.102
14/04/2020 12:51:16.500,-1.367,0.555,0.121
14/04/2020 12:51:16.534,-1.297,0.461,0.152
14/04/2020 12:51:16.567,-0.926,0.266,0.180
14/04/2020 12:51:16.600,-0.672,0.281,0.203
14/04/2020 12:51:16.634,-0.809,0.445,0.152
14/04/2020 12:51:16.667,-1.027,0.523,0.133
14/04/2020 12:51:16.700,-1.047,0.441,0.160
14/04/2020 12:51:16.734,-0.945,0.336,0.203
14/04/2020 12:51:16.767,-0.848,0.297,0.250
14/04/2020 12:51:16.800,-0.773,0.316,0.234
14/04/2020 12:51:16.834,-0.750,0.344,0.199
14/04/2020 12:51:16.867,-0.750,0.398,0.199
14/04/2020 12:51:16.900,-0.746,0.414,0.184
14/04/2020 12:51:16.934,-0.738,0.410,0.176
14/04/2020 12:51:16.967,-0.762,0.391,0.184
14/04/2020 12:51:17.000,-0.758,0.387,0.172
14/04/2020 12:51:17.034,-0.781,0.391,0.156
14/04/2020 12:51:17.067,-0.832,0.379,0.156
14/04/2020 12:51:17.100,-0.941,0.406,0.117
14/04/2020 12:51:17.134,-1.242,0.496,0.152
14/04/2020 12:51:17.167,-1.242,0.504,0.211
14/04/2020 12:51:17.200,-0.926,0.395,0.164
14/04/2020 12:51:17.234,-0.848,0.250,0.113
14/04/2020 12:51:17.267,-1.039,0.301,0.152
14/04/2020 12:51:17.300,-1.129,0.398,0.137
14/04/2020 12:51:17.334,-1.055,0.367,0.098
14/04/2020 12:51:17.367,-0.961,0.324,0.105
14/04/2020 12:51:17.400,-0.895,0.309,0.109
14/04/2020 12:51:17.434,-0.922,0.297,0.078
14/04/2020 12:51:17.467,-0.930,0.301,0.059
14/04/2020 12:51:17.500,-0.957,0.309,0.051
14/04/2020 12:51:17.534,-0.961,0.313,0.051
14/04/2020 12:51:17.567,-0.945,0.313,0.078
14/04/2020 12:51:17.600,-0.930,0.324,0.098
14/04/2020 12:51:17.634,-0.953,0.379,0.172
14/04/2020 12:51:17.667,-1.070,0.438,0.234
14/04/2020 12:51:17.700,-1.113,0.371,0.227
14/04/2020 12:51:17.734,-0.988,0.410,0.336
14/04/2020 12:51:17.767,-0.844,0.375,0.340
14/04/2020 12:51:17.800,-0.738,0.387,0.293
14/04/2020 12:51:17.834,-0.758,0.422,0.293
14/04/2020 12:51:17.867,-0.805,0.426,0.328
14/04/2020 12:51:17.900,-0.801,0.379,0.336
14/04/2020 12:51:17.934,-0.742,0.406,0.340
14/04/2020 12:51:17.967,-0.688,0.418,0.355
14/04/2020 12:51:18.000,-0.660,0.438,0.340
14/04/2020 12:51:18.034,-0.637,0.441,0.332
14/04/2020 12:51:18.067,-0.629,0.441,0.352
14/04/2020 12:51:18.100,-0.613,0.449,0.336
14/04/2020 12:51:18.134,-0.621,0.465,0.324
14/04/2020 12:51:18.167,-0.648,0.477,0.332
14/04/2020 12:51:18.200,-0.672,0.473,0.320
14/04/2020 12:51:18.234,-0.723,0.469,0.309
14/04/2020 12:51:18.267,-0.805,0.453,0.273
14/04/2020 12:51:18.300,-0.957,0.473,0.250
14/04/2020 12:51:18.334,-1.105,0.477,0.207
14/04/2020 12:51:18.367,-1.184,0.457,0.164
14/04/2020 12:51:18.400,-1.074,0.434,0.113
14/04/2020 12:51:18.434,-0.949,0.434,0.074
14/04/2020 12:51:18.467,-0.980,0.473,0.051
14/04/2020 12:51:18.500,-0.977,0.508,0.020
14/04/2020 12:51:18.534,-0.914,0.461,0.008
14/04/2020 12:51:18.567,-0.891,0.406,0.035
14/04/2020 12:51:18.600,-0.879,0.414,0.059
14/04/2020 12:51:18.634,-0.902,0.449,0.043
14/04/2020 12:51:18.667,-0.922,0.453,0.043
14/04/2020 12:51:18.700,-0.918,0.453,0.055
14/04/2020 12:51:18.734,-0.918,0.441,0.066
14/04/2020 12:51:18.767,-0.910,0.430,0.074
14/04/2020 12:51:18.800,-0.910,0.418,0.074
14/04/2020 12:51:18.834,-0.949,0.418,0.086
14/04/2020 12:51:18.867,-0.984,0.418,0.086
14/04/2020 12:51:18.900,-1.031,0.395,0.105
14/04/2020 12:51:18.934,-1.109,0.379,0.121
14/04/2020 12:51:18.967,-1.125,0.395,0.113
14/04/2020 12:51:19.000,-1.137,0.426,0.117
14/04/2020 12:51:19.034,-1.125,0.445,0.125
14/04/2020 12:51:19.067,-1.223,0.402,0.125
14/04/2020 12:51:19.100,-1.223,0.352,0.121
14/04/2020 12:51:19.134,-0.973,0.289,0.152
14/04/2020 12:51:19.167,-0.723,0.254,0.137
14/04/2020 12:51:19.200,-0.734,0.270,0.098
14/04/2020 12:51:19.234,-0.809,0.301,0.078
14/04/2020 12:51:19.267,-0.816,0.316,0.078
14/04/2020 12:51:19.300,-0.695,0.309,0.094
14/04/2020 12:51:19.334,-0.613,0.297,0.086
14/04/2020 12:51:19.367,-0.602,0.313,0.082
14/04/2020 12:51:19.400,-0.656,0.328,0.086
14/04/2020 12:51:19.434,-0.719,0.328,0.102
14/04/2020 12:51:19.467,-0.789,0.344,0.129
14/04/2020 12:51:19.500,-0.852,0.352,0.148
14/04/2020 12:51:19.534,-0.895,0.367,0.156
14/04/2020 12:51:19.567,-0.965,0.383,0.172
14/04/2020 12:51:19.600,-1.027,0.414,0.191
14/04/2020 12:51:19.634,-1.078,0.418,0.203
14/04/2020 12:51:19.667,-1.078,0.422,0.219
14/04/2020 12:51:19.700,-1.250,0.508,0.223
14/04/2020 12:51:19.734,-1.402,0.602,0.316
14/04/2020 12:51:19.767,-1.148,0.488,0.258
14/04/2020 12:51:19.800,-0.797,0.309,0.191
14/04/2020 12:51:19.834,-0.781,0.379,0.188
14/04/2020 12:51:19.867,-0.930,0.434,0.121
14/04/2020 12:51:19.900,-1.008,0.418,0.004
14/04/2020 12:51:19.934,-0.953,0.332,-0.066
14/04/2020 12:51:19.967,-0.859,0.273,-0.090
14/04/2020 12:51:20.000,-0.891,0.246,-0.078
14/04/2020 12:51:20.034,-0.934,0.207,-0.063
14/04/2020 12:51:20.067,-0.945,0.246,-0.078
14/04/2020 12:51:20.100,-0.992,0.273,-0.051
14/04/2020 12:51:20.134,-0.977,0.289,-0.023
14/04/2020 12:51:20.167,-0.988,0.297,-0.008
14/04/2020 12:51:20.200,-0.988,0.277,0.000
14/04/2020 12:51:20.234,-1.012,0.297,0.035
14/04/2020 12:51:20.267,-0.984,0.324,0.074
14/04/2020 12:51:20.300,-1.117,0.313,0.039
14/04/2020 12:51:20.334,-1.141,0.301,0.051
14/04/2020 12:51:20.367,-0.977,0.289,0.078
14/04/2020 12:51:20.400,-0.801,0.207,0.082
14/04/2020 12:51:20.434,-0.773,0.164,0.051
14/04/2020 12:51:20.467,-0.914,0.250,0.035
14/04/2020 12:51:20.500,-0.996,0.305,0.086
14/04/2020 12:51:20.534,-0.922,0.328,0.105
14/04/2020 12:51:20.567,-0.836,0.301,0.113
14/04/2020 12:51:20.600,-0.797,0.281,0.145
14/04/2020 12:51:20.634,-0.820,0.309,0.160
14/04/2020 12:51:20.667,-0.828,0.355,0.172
14/04/2020 12:51:20.700,-0.813,0.367,0.188
14/04/2020 12:51:20.734,-0.777,0.375,0.195
14/04/2020 12:51:20.767,-0.813,0.395,0.211
14/04/2020 12:51:20.800,-0.906,0.422,0.219
14/04/2020 12:51:20.834,-0.977,0.434,0.230
14/04/2020 12:51:20.867,-1.031,0.418,0.230
14/04/2020 12:51:20.900,-1.137,0.438,0.238
14/04/2020 12:51:20.934,-1.520,0.570,0.305
14/04/2020 12:51:20.967,-1.414,0.375,0.250
14/04/2020 12:51:21.000,-1.016,0.188,0.164
14/04/2020 12:51:21.034,-0.754,0.219,0.184
14/04/2020 12:51:21.067,-0.895,0.395,0.160
14/04/2020 12:51:21.100,-1.063,0.430,0.051
14/04/2020 12:51:21.134,-1.109,0.305,0.000
14/04/2020 12:51:21.167,-1.008,0.246,0.027
14/04/2020 12:51:21.200,-0.906,0.262,0.063
14/04/2020 12:51:21.234,-0.863,0.328,0.055
14/04/2020 12:51:21.267,-0.793,0.352,-0.004
14/04/2020 12:51:21.300,-0.762,0.379,-0.012
14/04/2020 12:51:21.334,-0.816,0.395,0.012
14/04/2020 12:51:21.367,-0.793,0.391,0.004
14/04/2020 12:51:21.400,-0.793,0.395,0.016
14/04/2020 12:51:21.434,-0.801,0.418,0.031
14/04/2020 12:51:21.467,-0.824,0.441,0.035
14/04/2020 12:51:21.500,-0.875,0.477,0.051
14/04/2020 12:51:21.534,-1.078,0.477,0.078
14/04/2020 12:51:21.567,-1.070,0.438,0.117
14/04/2020 12:51:21.600,-0.910,0.391,0.172
14/04/2020 12:51:21.634,-0.750,0.293,0.184
14/04/2020 12:51:21.667,-0.836,0.285,0.148
14/04/2020 12:51:21.700,-1.020,0.348,0.176
14/04/2020 12:51:21.734,-1.109,0.383,0.223
14/04/2020 12:51:21.767,-0.992,0.363,0.234
14/04/2020 12:51:21.800,-0.816,0.305,0.211
14/04/2020 12:51:21.834,-0.766,0.305,0.191
14/04/2020 12:51:21.867,-0.828,0.359,0.180
14/04/2020 12:51:21.900,-0.859,0.398,0.172
14/04/2020 12:51:21.934,-0.852,0.410,0.199
14/04/2020 12:51:21.967,-0.828,0.414,0.188
14/04/2020 12:51:22.000,-0.859,0.430,0.203
14/04/2020 12:51:22.034,-0.855,0.418,0.188
14/04/2020 12:51:22.067,-0.863,0.418,0.191
14/04/2020 12:51:22.100,-0.922,0.422,0.188
14/04/2020 12:51:22.134,-1.109,0.492,0.191
14/04/2020 12:51:22.167,-1.492,0.539,0.270
14/04/2020 12:51:22.200,-1.309,0.340,0.227
14/04/2020 12:51:22.234,-0.840,0.164,0.180
14/04/2020 12:51:22.267,-0.918,0.242,0.215
14/04/2020 12:51:22.300,-1.273,0.367,0.195
14/04/2020 12:51:22.334,-1.285,0.363,0.082
14/04/2020 12:51:22.367,-1.137,0.273,0.074
14/04/2020 12:51:22.400,-0.984,0.246,0.117
14/04/2020 12:51:22.434,-0.945,0.320,0.125
14/04/2020 12:51:22.467,-0.957,0.332,0.082
14/04/2020 12:51:22.500,-0.879,0.320,0.027
14/04/2020 12:51:22.534,-0.918,0.359,0.043
14/04/2020 12:51:22.567,-0.852,0.383,0.043
14/04/2020 12:51:22.600,-0.809,0.398,-0.004
14/04/2020 12:51:22.634,-0.867,0.441,-0.016
14/04/2020 12:51:22.667,-0.945,0.508,-0.008
14/04/2020 12:51:22.700,-0.996,0.500,-0.020
14/04/2020 12:51:22.734,-1.012,0.453,-0.027
14/04/2020 12:51:22.767,-1.016,0.414,-0.031
14/04/2020 12:51:22.800,-0.969,0.363,-0.059
14/04/2020 12:51:22.834,-0.910,0.316,-0.113
14/04/2020 12:51:22.867,-0.910,0.293,-0.164
14/04/2020 12:51:22.900,-0.945,0.340,-0.188
14/04/2020 12:51:22.934,-0.941,0.383,-0.195
14/04/2020 12:51:22.967,-0.891,0.383,-0.219
14/04/2020 12:51:23.000,-0.879,0.375,-0.223
14/04/2020 12:51:23.034,-0.902,0.367,-0.199
14/04/2020 12:51:23.067,-0.910,0.387,-0.168
14/04/2020 12:51:23.100,-0.852,0.395,-0.156
14/04/2020 12:51:23.134,-0.727,0.391,-0.156
14/04/2020 12:51:23.167,-0.801,0.461,-0.066
14/04/2020 12:51:23.200,-0.980,0.512,0.047
14/04/2020 12:51:23.234,-1.023,0.512,0.004
14/04/2020 12:51:23.267,-1.023,0.492,0.055
14/04/2020 12:51:23.300,-1.008,0.438,0.266
14/04/2020 12:51:23.334,-0.941,0.422,0.379
14/04/2020 12:51:23.367,-0.738,0.543,0.277
14/04/2020 12:51:23.400,-0.633,0.613,0.309
14/04/2020 12:51:23.434,-0.660,0.578,0.426
14/04/2020 12:51:23.467,-0.691,0.469,0.441
14/04/2020 12:51:23.500,-0.727,0.461,0.375
14/04/2020 12:51:23.534,-0.789,0.492,0.336
14/04/2020 12:51:23.567,-0.855,0.512,0.320
14/04/2020 12:51:23.600,-0.910,0.512,0.242
14/04/2020 12:51:23.634,-1.195,0.555,0.203
14/04/2020 12:51:23.667,-1.234,0.480,0.203
14/04/2020 12:51:23.700,-1.031,0.379,0.156
14/04/2020 12:51:23.734,-1.020,0.316,0.109
14/04/2020 12:51:23.767,-1.297,0.395,0.094
14/04/2020 12:51:23.800,-1.121,0.398,0.086
14/04/2020 12:51:23.834,-0.848,0.320,0.047
14/04/2020 12:51:23.867,-0.699,0.234,0.066
14/04/2020 12:51:23.900,-0.680,0.313,0.082
14/04/2020 12:51:23.934,-0.723,0.355,0.059
14/04/2020 12:51:23.967,-0.750,0.352,0.039
14/04/2020 12:51:24.000,-0.828,0.344,0.039
14/04/2020 12:51:24.034,-0.871,0.348,0.059
14/04/2020 12:51:24.067,-0.926,0.395,0.059
14/04/2020 12:51:24.100,-1.004,0.402,0.039
14/04/2020 12:51:24.134,-1.137,0.410,0.043
14/04/2020 12:51:24.167,-1.176,0.441,0.063
14/04/2020 12:51:24.200,-1.129,0.469,0.113
14/04/2020 12:51:24.234,-1.195,0.449,0.109
14/04/2020 12:51:24.267,-1.289,0.441,0.125
14/04/2020 12:51:24.300,-1.078,0.336,0.207
14/04/2020 12:51:24.334,-0.707,0.262,0.297
14/04/2020 12:51:24.367,-0.637,0.359,0.301
14/04/2020 12:51:24.400,-0.730,0.539,0.207
14/04/2020 12:51:24.434,-0.844,0.465,0.266
14/04/2020 12:51:24.467,-0.828,0.348,0.332
14/04/2020 12:51:24.500,-0.832,0.328,0.301
14/04/2020 12:51:24.534,-0.898,0.402,0.262
14/04/2020 12:51:24.567,-0.910,0.406,0.277
14/04/2020 12:51:24.600,-0.934,0.398,0.258
14/04/2020 12:51:24.634,-0.969,0.402,0.254
14/04/2020 12:51:24.667,-0.984,0.375,0.242
14/04/2020 12:51:24.700,-0.961,0.355,0.211
14/04/2020 12:51:24.734,-0.965,0.352,0.203
14/04/2020 12:51:24.767,-0.934,0.316,0.191
14/04/2020 12:51:24.800,-0.844,0.262,0.160
14/04/2020 12:51:24.834,-0.820,0.258,0.172
14/04/2020 12:51:24.867,-0.785,0.297,0.184
14/04/2020 12:51:24.900,-0.781,0.313,0.195
14/04/2020 12:51:24.934,-0.754,0.328,0.180
14/04/2020 12:51:24.967,-0.969,0.402,0.160
14/04/2020 12:51:25.000,-1.266,0.500,0.207
14/04/2020 12:51:25.034,-1.059,0.457,0.219
14/04/2020 12:51:25.067,-0.715,0.289,0.172
14/04/2020 12:51:25.100,-0.773,0.230,0.156
14/04/2020 12:51:25.134,-1.043,0.344,0.156
14/04/2020 12:51:25.167,-1.113,0.363,0.152
14/04/2020 12:51:25.200,-0.984,0.316,0.102
14/04/2020 12:51:25.234,-0.910,0.262,0.117
14/04/2020 12:51:25.267,-0.875,0.246,0.117
14/04/2020 12:51:25.300,-0.867,0.254,0.102
14/04/2020 12:51:25.334,-0.895,0.273,0.094
14/04/2020 12:51:25.367,-0.902,0.313,0.105
14/04/2020 12:51:25.400,-0.871,0.324,0.094
14/04/2020 12:51:25.434,-0.949,0.344,0.086
14/04/2020 12:51:25.467,-1.020,0.363,0.094
14/04/2020 12:51:25.500,-1.055,0.402,0.098
14/04/2020 12:51:25.534,-1.055,0.457,0.129
14/04/2020 12:51:25.567,-1.270,0.500,0.109
14/04/2020 12:51:25.600,-1.473,0.523,0.145
14/04/2020 12:51:25.634,-1.016,0.305,0.199
14/04/2020 12:51:25.667,-0.551,0.234,0.219
14/04/2020 12:51:25.700,-0.688,0.422,0.184
14/04/2020 12:51:25.734,-1.008,0.531,0.109
14/04/2020 12:51:25.767,-1.156,0.426,0.086
14/04/2020 12:51:25.800,-1.023,0.258,0.160
14/04/2020 12:51:25.834,-0.902,0.215,0.199
14/04/2020 12:51:25.867,-0.859,0.250,0.133
14/04/2020 12:51:25.900,-0.848,0.305,0.113
14/04/2020 12:51:25.934,-0.867,0.320,0.109
14/04/2020 12:51:25.967,-0.836,0.313,0.117
14/04/2020 12:51:26.000,-0.840,0.305,0.148
14/04/2020 12:51:26.034,-0.766,0.277,0.137
14/04/2020 12:51:26.067,-0.691,0.273,0.133
14/04/2020 12:51:26.100,-0.719,0.313,0.148
14/04/2020 12:51:26.134,-0.762,0.340,0.137
14/04/2020 12:51:26.167,-0.922,0.391,0.113
14/04/2020 12:51:26.200,-1.332,0.512,0.109
14/04/2020 12:51:26.234,-1.383,0.504,0.156
14/04/2020 12:51:26.267,-0.965,0.434,0.137
14/04/2020 12:51:26.300,-0.773,0.281,0.094
14/04/2020 12:51:26.334,-0.965,0.348,0.090
14/04/2020 12:51:26.367,-1.121,0.445,0.098
14/04/2020 12:51:26.400,-1.020,0.328,0.113
14/04/2020 12:51:26.434,-0.918,0.297,0.121
14/04/2020 12:51:26.467,-0.906,0.297,0.129
14/04/2020 12:51:26.500,-0.848,0.313,0.090
14/04/2020 12:51:26.534,-0.828,0.336,0.074
14/04/2020 12:51:26.567,-0.848,0.379,0.082
14/04/2020 12:51:26.600,-0.891,0.410,0.074
14/04/2020 12:51:26.634,-0.891,0.395,0.055
14/04/2020 12:51:26.667,-0.914,0.391,0.078
14/04/2020 12:51:26.700,-0.934,0.414,0.094
14/04/2020 12:51:26.734,-0.945,0.453,0.113
14/04/2020 12:51:26.767,-1.043,0.484,0.129
14/04/2020 12:51:26.800,-1.395,0.504,0.148
14/04/2020 12:51:26.834,-1.332,0.355,0.180
14/04/2020 12:51:26.867,-0.891,0.215,0.172
14/04/2020 12:51:26.900,-0.668,0.242,0.145
14/04/2020 12:51:26.934,-0.867,0.426,0.094
14/04/2020 12:51:26.967,-1.098,0.496,0.051
14/04/2020 12:51:27.000,-1.102,0.434,0.055
14/04/2020 12:51:27.034,-1.000,0.336,0.109
14/04/2020 12:51:27.067,-0.848,0.273,0.129
14/04/2020 12:51:27.100,-0.750,0.305,0.113
14/04/2020 12:51:27.134,-0.754,0.367,0.117
14/04/2020 12:51:27.167,-0.758,0.387,0.102
14/04/2020 12:51:27.200,-0.750,0.379,0.102
14/04/2020 12:51:27.234,-0.781,0.375,0.117
14/04/2020 12:51:27.267,-0.754,0.371,0.121
14/04/2020 12:51:27.300,-0.730,0.379,0.137
14/04/2020 12:51:27.334,-0.738,0.367,0.148
14/04/2020 12:51:27.367,-0.777,0.355,0.164
14/04/2020 12:51:27.400,-1.023,0.414,0.152
14/04/2020 12:51:27.434,-1.250,0.461,0.191
14/04/2020 12:51:27.467,-1.047,0.430,0.191
14/04/2020 12:51:27.500,-0.875,0.379,0.168
14/04/2020 12:51:27.534,-0.898,0.340,0.137
14/04/2020 12:51:27.567,-0.988,0.430,0.117
14/04/2020 12:51:27.600,-1.070,0.410,0.098
14/04/2020 12:51:27.634,-1.055,0.359,0.082
14/04/2020 12:51:27.667,-1.020,0.363,0.105
14/04/2020 12:51:27.700,-0.957,0.352,0.078
14/04/2020 12:51:27.734,-0.918,0.340,0.043
14/04/2020 12:51:27.767,-0.855,0.344,0.047
14/04/2020 12:51:27.800,-0.820,0.344,0.031
14/04/2020 12:51:27.834,-0.863,0.340,0.012
14/04/2020 12:51:27.867,-0.938,0.328,0.008
14/04/2020 12:51:27.900,-0.980,0.316,0.023
14/04/2020 12:51:27.934,-1.086,0.355,0.012
14/04/2020 12:51:27.967,-1.398,0.457,0.043
14/04/2020 12:51:28.000,-1.363,0.391,0.086
14/04/2020 12:51:28.034,-1.012,0.242,0.082
14/04/2020 12:51:28.067,-0.840,0.164,0.121
14/04/2020 12:51:28.100,-0.902,0.258,0.094
14/04/2020 12:51:28.134,-1.066,0.371,0.113
14/04/2020 12:51:28.167,-1.148,0.398,0.148
14/04/2020 12:51:28.200,-1.004,0.324,0.141
14/04/2020 12:51:28.234,-0.902,0.262,0.141
14/04/2020 12:51:28.267,-0.879,0.254,0.160
14/04/2020 12:51:28.300,-0.813,0.262,0.156
14/04/2020 12:51:28.334,-0.777,0.262,0.156
14/04/2020 12:51:28.367,-0.715,0.266,0.156
14/04/2020 12:51:28.400,-0.660,0.266,0.172
14/04/2020 12:51:28.434,-0.660,0.285,0.203
14/04/2020 12:51:28.467,-0.660,0.285,0.215
14/04/2020 12:51:28.500,-0.672,0.328,0.230
14/04/2020 12:51:28.534,-0.688,0.379,0.266
14/04/2020 12:51:28.567,-0.723,0.398,0.273
14/04/2020 12:51:28.600,-1.020,0.496,0.246
14/04/2020 12:51:28.634,-1.547,0.570,0.297
14/04/2020 12:51:28.667,-1.453,0.535,0.293
14/04/2020 12:51:28.700,-1.086,0.422,0.242
14/04/2020 12:51:28.734,-0.832,0.348,0.227
14/04/2020 12:51:28.767,-0.887,0.469,0.160
14/04/2020 12:51:28.800,-1.020,0.570,0.102
14/04/2020 12:51:28.834,-0.977,0.504,0.059
14/04/2020 12:51:28.867,-0.918,0.398,0.094
14/04/2020 12:51:28.900,-0.836,0.324,0.125
14/04/2020 12:51:28.934,-0.758,0.328,0.086
14/04/2020 12:51:28.967,-0.746,0.352,0.043
14/04/2020 12:51:29.000,-0.758,0.395,0.031
14/04/2020 12:51:29.034,-0.828,0.430,0.047
14/04/2020 12:51:29.067,-0.887,0.422,0.055
14/04/2020 12:51:29.100,-0.949,0.391,0.063
14/04/2020 12:51:29.134,-0.965,0.367,0.074
14/04/2020 12:51:29.167,-1.008,0.402,0.117
14/04/2020 12:51:29.200,-1.066,0.449,0.133
14/04/2020 12:51:29.234,-1.309,0.457,0.121
14/04/2020 12:51:29.267,-1.504,0.414,0.160
14/04/2020 12:51:29.300,-1.152,0.313,0.242
14/04/2020 12:51:29.334,-0.656,0.250,0.258
14/04/2020 12:51:29.367,-0.578,0.281,0.164
14/04/2020 12:51:29.400,-0.813,0.371,0.098
14/04/2020 12:51:29.434,-1.113,0.402,0.160
14/04/2020 12:51:29.467,-1.066,0.387,0.219
14/04/2020 12:51:29.500,-0.879,0.320,0.176
14/04/2020 12:51:29.534,-0.734,0.363,0.168
14/04/2020 12:51:29.567,-0.676,0.398,0.141
14/04/2020 12:51:29.600,-0.680,0.414,0.117
14/04/2020 12:51:29.634,-0.738,0.383,0.141
14/04/2020 12:51:29.667,-0.723,0.359,0.160
14/04/2020 12:51:29.700,-0.684,0.363,0.152
14/04/2020 12:51:29.734,-0.727,0.383,0.172
14/04/2020 12:51:29.767,-0.762,0.379,0.184
14/04/2020 12:51:29.800,-0.781,0.375,0.191
14/04/2020 12:51:29.834,-0.848,0.344,0.199
14/04/2020 12:51:29.867,-0.922,0.336,0.172
14/04/2020 12:51:29.900,-1.285,0.422,0.152
14/04/2020 12:51:29.934,-1.434,0.484,0.211
14/04/2020 12:51:29.967,-1.102,0.406,0.160
14/04/2020 12:51:30.000,-0.816,0.270,0.125
14/04/2020 12:51:30.034,-0.848,0.270,0.129
14/04/2020 12:51:30.067,-1.043,0.414,0.121
14/04/2020 12:51:30.100,-1.098,0.453,0.109
14/04/2020 12:51:30.134,-0.988,0.383,0.105
14/04/2020 12:51:30.167,-0.910,0.320,0.141
14/04/2020 12:51:30.200,-0.898,0.313,0.156
14/04/2020 12:51:30.234,-0.930,0.328,0.113
14/04/2020 12:51:30.267,-0.938,0.340,0.098
14/04/2020 12:51:30.300,-0.941,0.363,0.117
14/04/2020 12:51:30.334,-0.918,0.355,0.129
14/04/2020 12:51:30.367,-0.941,0.355,0.129
14/04/2020 12:51:30.400,-0.961,0.355,0.180
14/04/2020 12:51:30.434,-0.930,0.363,0.234
14/04/2020 12:51:30.467,-0.945,0.359,0.270
14/04/2020 12:51:30.500,-1.211,0.352,0.254
14/04/2020 12:51:30.534,-1.176,0.336,0.305
14/04/2020 12:51:30.567,-0.965,0.313,0.332
14/04/2020 12:51:30.600,-0.789,0.293,0.340
14/04/2020 12:51:30.634,-0.750,0.305,0.328
14/04/2020 12:51:30.667,-0.816,0.316,0.324
14/04/2020 12:51:30.700,-0.813,0.301,0.332
14/04/2020 12:51:30.734,-0.762,0.285,0.320
14/04/2020 12:51:30.767,-0.715,0.273,0.297
14/04/2020 12:51:30.800,-0.680,0.309,0.246
14/04/2020 12:51:30.834,-0.695,0.359,0.215
14/04/2020 12:51:30.867,-0.707,0.383,0.184
14/04/2020 12:51:30.900,-0.715,0.391,0.160
14/04/2020 12:51:30.934,-0.750,0.418,0.129
14/04/2020 12:51:30.967,-0.801,0.434,0.094
14/04/2020 12:51:31.000,-0.910,0.473,0.063
14/04/2020 12:51:31.034,-0.918,0.465,0.023
14/04/2020 12:51:31.067,-0.922,0.457,0.016
14/04/2020 12:51:31.100,-1.051,0.527,0.016
14/04/2020 12:51:31.134,-1.098,0.586,0.035
14/04/2020 12:51:31.167,-0.945,0.563,0.016
14/04/2020 12:51:31.200,-0.910,0.504,0.020
14/04/2020 12:51:31.234,-1.020,0.520,0.070
14/04/2020 12:51:31.267,-1.156,0.539,0.109
14/04/2020 12:51:31.300,-1.078,0.484,0.121
14/04/2020 12:51:31.334,-0.922,0.410,0.125
14/04/2020 12:51:31.367,-0.832,0.402,0.113
14/04/2020 12:51:31.400,-0.840,0.434,0.078
14/04/2020 12:51:31.434,-0.867,0.469,0.070
14/04/2020 12:51:31.467,-0.902,0.453,0.098
14/04/2020 12:51:31.500,-0.926,0.441,0.145
14/04/2020 12:51:31.534,-0.922,0.418,0.176
14/04/2020 12:51:31.567,-0.910,0.418,0.203
14/04/2020 12:51:31.600,-0.906,0.410,0.219
14/04/2020 12:51:31.634,-0.910,0.414,0.234
14/04/2020 12:51:31.667,-0.930,0.410,0.254
14/04/2020 12:51:31.700,-0.969,0.387,0.258
14/04/2020 12:51:31.734,-1.008,0.367,0.246
14/04/2020 12:51:31.767,-1.004,0.355,0.246
14/04/2020 12:51:31.800,-1.012,0.363,0.254
14/04/2020 12:51:31.834,-1.105,0.371,0.215
14/04/2020 12:51:31.867,-1.195,0.355,0.207
14/04/2020 12:51:31.900,-1.094,0.340,0.219
14/04/2020 12:51:31.934,-0.836,0.273,0.191
14/04/2020 12:51:31.967,-0.629,0.195,0.168
14/04/2020 12:51:32.000,-0.727,0.188,0.109
14/04/2020 12:51:32.034,-0.914,0.207,0.109
14/04/2020 12:51:32.067,-0.988,0.270,0.133
14/04/2020 12:51:32.100,-0.887,0.309,0.160
14/04/2020 12:51:32.134,-0.742,0.277,0.145
14/04/2020 12:51:32.167,-0.715,0.289,0.133
14/04/2020 12:51:32.200,-0.766,0.313,0.133
14/04/2020 12:51:32.234,-0.852,0.316,0.133
14/04/2020 12:51:32.267,-0.906,0.367,0.160
14/04/2020 12:51:32.300,-0.875,0.406,0.180
14/04/2020 12:51:32.334,-0.797,0.414,0.195
14/04/2020 12:51:32.367,-0.813,0.410,0.207
14/04/2020 12:51:32.400,-0.859,0.406,0.195
14/04/2020 12:51:32.434,-0.941,0.426,0.199
14/04/2020 12:51:32.467,-1.023,0.445,0.242
14/04/2020 12:51:32.500,-1.086,0.449,0.250
14/04/2020 12:51:32.534,-1.313,0.535,0.277
14/04/2020 12:51:32.567,-1.395,0.520,0.297
14/04/2020 12:51:32.600,-1.066,0.344,0.219
14/04/2020 12:51:32.634,-0.738,0.262,0.207
14/04/2020 12:51:32.667,-0.805,0.363,0.199
14/04/2020 12:51:32.700,-1.012,0.492,0.160
14/04/2020 12:51:32.734,-1.145,0.473,0.129
14/04/2020 12:51:32.767,-1.031,0.355,0.105
14/04/2020 12:51:32.800,-0.926,0.262,0.109
14/04/2020 12:51:32.834,-0.859,0.246,0.117
14/04/2020 12:51:32.867,-0.848,0.305,0.082
14/04/2020 12:51:32.900,-0.855,0.328,0.043
14/04/2020 12:51:32.934,-0.793,0.328,0.031
14/04/2020 12:51:32.967,-0.785,0.340,0.039
14/04/2020 12:51:33.000,-0.824,0.340,0.035
14/04/2020 12:51:33.034,-0.801,0.313,0.023
14/04/2020 12:51:33.067,-0.824,0.336,0.023
14/04/2020 12:51:33.100,-0.844,0.375,0.059
14/04/2020 12:51:33.134,-1.055,0.410,0.059
14/04/2020 12:51:33.167,-1.203,0.414,0.098
14/04/2020 12:51:33.200,-1.180,0.398,0.152
14/04/2020 12:51:33.234,-0.859,0.359,0.215
14/04/2020 12:51:33.267,-0.656,0.313,0.176
14/04/2020 12:51:33.300,-0.832,0.309,0.125
14/04/2020 12:51:33.334,-1.039,0.371,0.160
14/04/2020 12:51:33.367,-1.105,0.410,0.227
14/04/2020 12:51:33.400,-0.914,0.387,0.234
14/04/2020 12:51:33.434,-0.738,0.359,0.215
14/04/2020 12:51:33.467,-0.703,0.387,0.203
14/04/2020 12:51:33.500,-0.777,0.414,0.203
14/04/2020 12:51:33.534,-0.848,0.402,0.219
14/04/2020 12:51:33.567,-0.840,0.391,0.246
14/04/2020 12:51:33.600,-0.785,0.398,0.238
14/04/2020 12:51:33.634,-0.816,0.430,0.242
14/04/2020 12:51:33.667,-0.902,0.449,0.230
14/04/2020 12:51:33.700,-1.008,0.426,0.242
14/04/2020 12:51:33.734,-1.203,0.477,0.219
14/04/2020 12:51:33.767,-1.602,0.578,0.293
14/04/2020 12:51:33.800,-1.328,0.426,0.215
14/04/2020 12:51:33.834,-0.828,0.238,0.098
14/04/2020 12:51:33.867,-0.801,0.223,0.086
14/04/2020 12:51:33.900,-0.945,0.387,0.039
14/04/2020 12:51:33.934,-1.094,0.457,-0.039
14/04/2020 12:51:33.967,-0.996,0.379,-0.059
14/04/2020 12:51:34.000,-0.883,0.313,-0.059
14/04/2020 12:51:34.034,-0.832,0.344,-0.082
14/04/2020 12:51:34.067,-0.855,0.383,-0.113
14/04/2020 12:51:34.100,-0.809,0.391,-0.148
14/04/2020 12:51:34.134,-0.781,0.422,-0.121
14/04/2020 12:51:34.167,-0.844,0.453,-0.098
14/04/2020 12:51:34.200,-0.852,0.438,-0.094
14/04/2020 12:51:34.234,-0.828,0.430,-0.055
14/04/2020 12:51:34.267,-0.855,0.434,-0.020
14/04/2020 12:51:34.300,-0.828,0.434,0.020
14/04/2020 12:51:34.334,-0.859,0.434,0.027
14/04/2020 12:51:34.367,-1.020,0.434,0.035
14/04/2020 12:51:34.400,-0.930,0.414,0.102
14/04/2020 12:51:34.434,-0.668,0.359,0.152
14/04/2020 12:51:34.467,-0.707,0.332,0.145
14/04/2020 12:51:34.500,-0.902,0.410,0.129
14/04/2020 12:51:34.534,-1.047,0.469,0.160
14/04/2020 12:51:34.567,-0.969,0.426,0.191
14/04/2020 12:51:34.600,-0.887,0.367,0.211
14/04/2020 12:51:34.634,-0.887,0.367,0.223
14/04/2020 12:51:34.667,-0.926,0.410,0.219
14/04/2020 12:51:34.700,-0.934,0.434,0.219
14/04/2020 12:51:34.734,-0.906,0.449,0.238
14/04/2020 12:51:34.767,-0.871,0.430,0.230
14/04/2020 12:51:34.800,-0.879,0.422,0.203
14/04/2020 12:51:34.834,-0.922,0.426,0.207
14/04/2020 12:51:34.867,-0.949,0.379,0.172
14/04/2020 12:51:34.900,-1.094,0.402,0.137
14/04/2020 12:51:34.934,-1.477,0.480,0.141
14/04/2020 12:51:34.967,-1.430,0.359,0.098
14/04/2020 12:51:35.000,-1.078,0.289,0.039
14/04/2020 12:51:35.034,-1.082,0.262,0.035
14/04/2020 12:51:35.067,-1.109,0.281,-0.039
14/04/2020 12:51:35.100,-1.016,0.313,-0.066
14/04/2020 12:51:35.134,-0.875,0.316,-0.086
14/04/2020 12:51:35.167,-0.742,0.320,-0.070
14/04/2020 12:51:35.200,-0.648,0.332,-0.055
14/04/2020 12:51:35.234,-0.613,0.316,-0.043
14/04/2020 12:51:35.267,-0.621,0.332,-0.020
14/04/2020 12:51:35.300,-0.688,0.359,0.000
14/04/2020 12:51:35.334,-0.719,0.355,0.016
14/04/2020 12:51:35.367,-0.793,0.344,0.031
14/04/2020 12:51:35.400,-0.949,0.328,0.074
14/04/2020 12:51:35.434,-0.988,0.316,0.113
14/04/2020 12:51:35.467,-1.020,0.348,0.137
14/04/2020 12:51:35.500,-1.012,0.363,0.148
14/04/2020 12:51:35.534,-1.301,0.457,0.195
14/04/2020 12:51:35.567,-1.188,0.379,0.383
14/04/2020 12:51:35.600,-1.055,0.363,0.332
14/04/2020 12:51:35.634,-0.879,0.410,0.230
14/04/2020 12:51:35.667,-0.746,0.473,0.129
14/04/2020 12:51:35.700,-0.703,0.449,0.090
14/04/2020 12:51:35.734,-0.797,0.398,0.141
14/04/2020 12:51:35.767,-0.922,0.352,0.234
14/04/2020 12:51:35.800,-1.008,0.340,0.324
14/04/2020 12:51:35.834,-0.859,0.367,0.258
14/04/2020 12:51:35.867,-0.898,0.402,0.160
14/04/2020 12:51:35.900,-0.914,0.270,0.297
14/04/2020 12:51:35.934,-1.020,0.207,0.336
14/04/2020 12:51:35.967,-0.922,0.141,0.344
14/04/2020 12:51:36.000,-0.895,0.164,0.336
14/04/2020 12:51:36.034,-0.918,0.238,0.246
14/04/2020 12:51:36.067,-0.891,0.211,0.207
14/04/2020 12:51:36.100,-0.895,0.063,0.277
14/04/2020 12:51:36.134,-0.844,-0.121,0.352
14/04/2020 12:51:36.167,-0.797,0.168,0.172
14/04/2020 12:51:36.200,-1.113,0.672,-0.063
14/04/2020 12:51:36.234,-1.473,0.488,-0.059
14/04/2020 12:51:36.267,-1.098,0.113,-0.059
14/04/2020 12:51:36.300,-0.980,0.215,-0.090
14/04/2020 12:51:36.334,-0.926,0.336,-0.188
14/04/2020 12:51:36.367,-1.031,0.270,-0.281
14/04/2020 12:51:36.400,-1.031,0.164,-0.297
14/04/2020 12:51:36.434,-1.086,0.113,-0.297
14/04/2020 12:51:36.467,-1.008,0.230,-0.316
14/04/2020 12:51:36.500,-0.977,0.352,-0.313
14/04/2020 12:51:36.534,-1.070,0.402,-0.316
14/04/2020 12:51:36.567,-1.117,0.395,-0.355
14/04/2020 12:51:36.600,-1.082,0.355,-0.324
14/04/2020 12:51:36.634,-1.105,0.340,-0.301
14/04/2020 12:51:36.667,-1.043,0.363,-0.246
14/04/2020 12:51:36.700,-0.988,0.359,-0.230
14/04/2020 12:51:36.734,-1.043,0.316,-0.227
14/04/2020 12:51:36.767,-0.973,0.293,-0.164
14/04/2020 12:51:36.800,-0.875,0.281,-0.094
14/04/2020 12:51:36.834,-0.910,0.293,-0.035
14/04/2020 12:51:36.867,-0.895,0.320,0.000
14/04/2020 12:51:36.900,-0.910,0.336,0.051
14/04/2020 12:51:36.934,-0.926,0.316,0.098
14/04/2020 12:51:36.967,-1.043,0.270,0.117
14/04/2020 12:51:37.000,-0.914,0.270,0.191
14/04/2020 12:51:37.034,-0.820,0.250,0.297
14/04/2020 12:51:37.067,-0.883,0.297,0.340
14/04/2020 12:51:37.100,-1.000,0.344,0.344
14/04/2020 12:51:37.134,-0.988,0.273,0.355
14/04/2020 12:51:37.167,-0.977,0.211,0.379
14/04/2020 12:51:37.200,-0.910,0.242,0.391
14/04/2020 12:51:37.234,-0.895,0.262,0.367
14/04/2020 12:51:37.267,-0.914,0.320,0.340
14/04/2020 12:51:37.300,-0.914,0.395,0.336
14/04/2020 12:51:37.334,-0.887,0.402,0.316
14/04/2020 12:51:37.367,-0.855,0.398,0.285
14/04/2020 12:51:37.400,-0.852,0.402,0.273
14/04/2020 12:51:37.434,-0.848,0.414,0.250
14/04/2020 12:51:37.467,-0.895,0.406,0.223
14/04/2020 12:51:37.500,-0.910,0.402,0.195
14/04/2020 12:51:37.534,-0.934,0.398,0.172
14/04/2020 12:51:37.567,-0.992,0.387,0.152
14/04/2020 12:51:37.600,-1.043,0.352,0.133
14/04/2020 12:51:37.634,-1.160,0.340,0.121
14/04/2020 12:51:37.667,-1.473,0.406,0.180
14/04/2020 12:51:37.700,-1.430,0.313,0.168
14/04/2020 12:51:37.734,-1.004,0.199,0.109
14/04/2020 12:51:37.767,-0.852,0.191,0.113
14/04/2020 12:51:37.800,-1.105,0.293,0.102
14/04/2020 12:51:37.834,-1.297,0.320,0.074
14/04/2020 12:51:37.867,-1.184,0.242,0.055
14/04/2020 12:51:37.900,-1.027,0.184,0.063
14/04/2020 12:51:37.934,-0.895,0.180,0.098
14/04/2020 12:51:37.967,-0.852,0.223,0.105
14/04/2020 12:51:38.000,-0.773,0.238,0.074
14/04/2020 12:51:38.034,-0.695,0.246,0.063
14/04/2020 12:51:38.067,-0.684,0.277,0.070
14/04/2020 12:51:38.100,-0.652,0.324,0.086
14/04/2020 12:51:38.134,-0.715,0.367,0.074
14/04/2020 12:51:38.167,-0.820,0.418,0.063
14/04/2020 12:51:38.200,-0.930,0.453,0.074
14/04/2020 12:51:38.234,-1.082,0.461,0.070
14/04/2020 12:51:38.267,-1.438,0.473,0.043
14/04/2020 12:51:38.300,-1.516,0.496,0.094
14/04/2020 12:51:38.334,-0.895,0.445,0.145
14/04/2020 12:51:38.367,-0.641,0.355,0.133
14/04/2020 12:51:38.400,-0.883,0.352,0.129
14/04/2020 12:51:38.434,-0.992,0.402,0.098
14/04/2020 12:51:38.467,-0.965,0.359,0.102
14/04/2020 12:51:38.500,-0.801,0.355,0.117
14/04/2020 12:51:38.534,-0.688,0.348,0.121
14/04/2020 12:51:38.567,-0.688,0.383,0.102
14/04/2020 12:51:38.600,-0.734,0.410,0.105
14/04/2020 12:51:38.634,-0.750,0.434,0.145
14/04/2020 12:51:38.667,-0.762,0.453,0.152
14/04/2020 12:51:38.700,-0.820,0.520,0.203
14/04/2020 12:51:38.734,-0.914,0.547,0.277
14/04/2020 12:51:38.767,-0.977,0.484,0.293
14/04/2020 12:51:38.800,-1.035,0.449,0.289
14/04/2020 12:51:38.834,-1.070,0.414,0.316
14/04/2020 12:51:38.867,-1.410,0.559,0.332
14/04/2020 12:51:38.900,-1.438,0.461,0.332
14/04/2020 12:51:38.934,-1.023,0.309,0.262
14/04/2020 12:51:38.967,-0.930,0.289,0.254
14/04/2020 12:51:39.000,-1.133,0.367,0.242
14/04/2020 12:51:39.034,-1.199,0.336,0.176
14/04/2020 12:51:39.067,-1.055,0.258,0.121
14/04/2020 12:51:39.100,-0.938,0.227,0.102
14/04/2020 12:51:39.134,-0.852,0.242,0.086
14/04/2020 12:51:39.167,-0.773,0.301,0.070
14/04/2020 12:51:39.200,-0.727,0.316,0.039
14/04/2020 12:51:39.234,-0.660,0.313,0.027
14/04/2020 12:51:39.267,-0.637,0.340,0.047
14/04/2020 12:51:39.300,-0.664,0.375,0.051
14/04/2020 12:51:39.334,-0.707,0.387,0.035
14/04/2020 12:51:39.367,-0.813,0.426,0.051
14/04/2020 12:51:39.400,-0.875,0.484,0.070
14/04/2020 12:51:39.434,-0.902,0.512,0.090
14/04/2020 12:51:39.467,-1.094,0.496,0.070
14/04/2020 12:51:39.500,-1.207,0.496,0.117
14/04/2020 12:51:39.534,-1.055,0.461,0.172
14/04/2020 12:51:39.567,-0.785,0.391,0.188
14/04/2020 12:51:39.600,-0.863,0.348,0.160
14/04/2020 12:51:39.634,-1.063,0.383,0.164
14/04/2020 12:51:39.667,-1.164,0.414,0.211
14/04/2020 12:51:39.700,-0.945,0.332,0.223
14/04/2020 12:51:39.734,-0.750,0.301,0.219
14/04/2020 12:51:39.767,-0.711,0.336,0.203
14/04/2020 12:51:39.800,-0.742,0.359,0.164
14/04/2020 12:51:39.834,-0.805,0.387,0.160
14/04/2020 12:51:39.867,-0.832,0.383,0.180
14/04/2020 12:51:39.900,-0.824,0.375,0.184
14/04/2020 12:51:39.934,-0.844,0.406,0.176
14/04/2020 12:51:39.967,-0.910,0.418,0.191
14/04/2020 12:51:40.000,-0.965,0.414,0.191
14/04/2020 12:51:40.034,-0.992,0.395,0.195
14/04/2020 12:51:40.067,-1.090,0.414,0.180
14/04/2020 12:51:40.100,-1.398,0.527,0.223
14/04/2020 12:51:40.134,-1.352,0.445,0.191
14/04/2020 12:51:40.167,-1.047,0.336,0.129
14/04/2020 12:51:40.200,-0.844,0.336,0.125
14/04/2020 12:51:40.234,-0.926,0.398,0.098
14/04/2020 12:51:40.267,-1.090,0.465,0.043
14/04/2020 12:51:40.300,-1.156,0.410,0.047
14/04/2020 12:51:40.334,-1.008,0.324,0.027
14/04/2020 12:51:40.367,-0.906,0.270,0.023
14/04/2020 12:51:40.400,-0.848,0.316,0.020
14/04/2020 12:51:40.434,-0.781,0.367,0.004
14/04/2020 12:51:40.467,-0.758,0.383,-0.027
14/04/2020 12:51:40.500,-0.727,0.352,-0.035
14/04/2020 12:51:40.534,-0.680,0.344,-0.016
14/04/2020 12:51:40.567,-0.734,0.352,-0.016
14/04/2020 12:51:40.600,-0.730,0.344,-0.012
14/04/2020 12:51:40.634,-0.762,0.379,0.016
14/04/2020 12:51:40.667,-0.816,0.414,0.059
14/04/2020 12:51:40.700,-0.930,0.445,0.051
14/04/2020 12:51:40.734,-1.242,0.473,0.090
14/04/2020 12:51:40.767,-1.305,0.480,0.145
14/04/2020 12:51:40.800,-0.938,0.402,0.223
14/04/2020 12:51:40.834,-0.637,0.344,0.227
14/04/2020 12:51:40.867,-0.664,0.352,0.172
14/04/2020 12:51:40.900,-1.004,0.461,0.188
14/04/2020 12:51:40.934,-1.313,0.473,0.266
14/04/2020 12:51:40.967,-1.184,0.457,0.285
14/04/2020 12:51:41.000,-0.875,0.395,0.250
14/04/2020 12:51:41.034,-0.711,0.410,0.230
14/04/2020 12:51:41.067,-0.734,0.477,0.191
14/04/2020 12:51:41.100,-0.844,0.465,0.188
14/04/2020 12:51:41.134,-0.902,0.434,0.215
14/04/2020 12:51:41.167,-0.887,0.379,0.211
14/04/2020 12:51:41.200,-0.832,0.375,0.160
14/04/2020 12:51:41.234,-0.832,0.395,0.121
14/04/2020 12:51:41.267,-0.879,0.383,0.086
14/04/2020 12:51:41.300,-0.906,0.348,0.035
14/04/2020 12:51:41.334,-0.891,0.336,-0.004
14/04/2020 12:51:41.367,-0.902,0.359,-0.039
14/04/2020 12:51:41.400,-0.914,0.371,-0.082
14/04/2020 12:51:41.434,-1.180,0.465,-0.148
14/04/2020 12:51:41.467,-1.438,0.574,-0.137
14/04/2020 12:51:41.500,-1.195,0.465,-0.203
14/04/2020 12:51:41.534,-0.957,0.293,-0.273
14/04/2020 12:51:41.567,-0.898,0.219,-0.195
14/04/2020 12:51:41.600,-0.953,0.266,-0.188
14/04/2020 12:51:41.634,-0.992,0.344,-0.297
14/04/2020 12:51:41.667,-1.016,0.398,-0.320
14/04/2020 12:51:41.700,-1.023,0.359,-0.320
14/04/2020 12:51:41.734,-0.953,0.289,-0.309
14/04/2020 12:51:41.767,-0.953,0.297,-0.297
14/04/2020 12:51:41.800,-1.004,0.383,-0.363
14/04/2020 12:51:41.834,-0.973,0.391,-0.320
14/04/2020 12:51:41.867,-0.930,0.379,-0.281
14/04/2020 12:51:41.900,-0.949,0.340,-0.227
14/04/2020 12:51:41.934,-0.926,0.355,-0.176
14/04/2020 12:51:41.967,-0.926,0.375,-0.117
14/04/2020 12:51:42.000,-0.918,0.363,-0.078
14/04/2020 12:51:42.034,-0.867,0.340,-0.047
14/04/2020 12:51:42.067,-0.852,0.344,-0.004
14/04/2020 12:51:42.100,-0.809,0.340,0.059
14/04/2020 12:51:42.134,-0.914,0.336,0.078
14/04/2020 12:51:42.167,-1.020,0.340,0.125
14/04/2020 12:51:42.200,-0.988,0.336,0.207
14/04/2020 12:51:42.234,-0.922,0.289,0.270
14/04/2020 12:51:42.267,-0.848,0.258,0.270
14/04/2020 12:51:42.300,-0.859,0.227,0.258
14/04/2020 12:51:42.334,-0.934,0.211,0.262
14/04/2020 12:51:42.367,-1.063,0.297,0.281
14/04/2020 12:51:42.400,-1.121,0.395,0.305
14/04/2020 12:51:42.434,-1.000,0.371,0.293
14/04/2020 12:51:42.467,-0.906,0.320,0.262
14/04/2020 12:51:42.500,-0.902,0.297,0.258
14/04/2020 12:51:42.534,-0.906,0.266,0.254
14/04/2020 12:51:42.567,-0.867,0.262,0.238
14/04/2020 12:51:42.600,-0.895,0.324,0.223
14/04/2020 12:51:42.634,-0.918,0.367,0.207
14/04/2020 12:51:42.667,-0.910,0.348,0.172
14/04/2020 12:51:42.700,-0.914,0.340,0.152
14/04/2020 12:51:42.734,-0.961,0.359,0.141
14/04/2020 12:51:42.767,-0.973,0.375,0.117
14/04/2020 12:51:42.800,-1.004,0.375,0.090
14/04/2020 12:51:42.834,-1.195,0.441,0.098
14/04/2020 12:51:42.867,-1.332,0.457,0.105
14/04/2020 12:51:42.900,-1.172,0.352,0.051
14/04/2020 12:51:42.934,-0.926,0.262,0.023
14/04/2020 12:51:42.967,-0.945,0.297,0.031
14/04/2020 12:51:43.000,-1.078,0.359,-0.004
14/04/2020 12:51:43.034,-1.148,0.348,-0.043
14/04/2020 12:51:43.067,-1.059,0.293,-0.047
14/04/2020 12:51:43.100,-1.023,0.246,-0.035
14/04/2020 12:51:43.134,-0.910,0.238,-0.035
14/04/2020 12:51:43.167,-0.859,0.285,-0.055
14/04/2020 12:51:43.200,-0.828,0.293,-0.070
14/04/2020 12:51:43.234,-0.770,0.309,-0.055
14/04/2020 12:51:43.267,-0.730,0.332,-0.023
14/04/2020 12:51:43.300,-0.762,0.336,-0.016
14/04/2020 12:51:43.334,-0.785,0.344,-0.004
14/04/2020 12:51:43.367,-0.836,0.379,0.023
14/04/2020 12:51:43.400,-0.855,0.418,0.059
14/04/2020 12:51:43.434,-0.906,0.449,0.082
14/04/2020 12:51:43.467,-1.113,0.461,0.082
14/04/2020 12:51:43.500,-1.219,0.438,0.117
14/04/2020 12:51:43.534,-0.996,0.426,0.172
14/04/2020 12:51:43.567,-0.738,0.371,0.203
14/04/2020 12:51:43.600,-0.762,0.316,0.133
14/04/2020 12:51:43.634,-0.988,0.355,0.117
14/04/2020 12:51:43.667,-1.133,0.406,0.164
14/04/2020 12:51:43.700,-0.992,0.391,0.219
14/04/2020 12:51:43.734,-0.813,0.348,0.211
14/04/2020 12:51:43.767,-0.738,0.352,0.184
14/04/2020 12:51:43.800,-0.762,0.398,0.160
14/04/2020 12:51:43.834,-0.805,0.418,0.156
14/04/2020 12:51:43.867,-0.852,0.406,0.172
14/04/2020 12:51:43.900,-0.836,0.398,0.160
14/04/2020 12:51:43.934,-0.871,0.422,0.188
14/04/2020 12:51:43.967,-0.902,0.441,0.180
14/04/2020 12:51:44.000,-0.949,0.461,0.199
14/04/2020 12:51:44.034,-0.977,0.414,0.234
14/04/2020 12:51:44.067,-0.973,0.332,0.211
14/04/2020 12:51:44.100,-1.258,0.402,0.250
14/04/2020 12:51:44.134,-1.477,0.438,0.293
14/04/2020 12:51:44.167,-1.242,0.320,0.227
14/04/2020 12:51:44.200,-0.828,0.176,0.238
14/04/2020 12:51:44.234,-0.793,0.230,0.250
14/04/2020 12:51:44.267,-1.090,0.344,0.207
14/04/2020 12:51:44.300,-1.230,0.309,0.148
14/04/2020 12:51:44.334,-1.102,0.285,0.125
14/04/2020 12:51:44.367,-0.973,0.262,0.141
14/04/2020 12:51:44.400,-0.852,0.289,0.121
14/04/2020 12:51:44.434,-0.781,0.348,0.078
14/04/2020 12:51:44.467,-0.793,0.371,0.055
14/04/2020 12:51:44.500,-0.762,0.367,0.070
14/04/2020 12:51:44.534,-0.695,0.379,0.078
14/04/2020 12:51:44.567,-0.621,0.402,0.063
14/04/2020 12:51:44.600,-0.617,0.441,0.047
14/04/2020 12:51:44.634,-0.660,0.480,0.043
14/04/2020 12:51:44.667,-0.695,0.527,0.051
14/04/2020 12:51:44.700,-0.824,0.555,0.074
14/04/2020 12:51:44.734,-0.910,0.520,0.098
14/04/2020 12:51:44.767,-0.914,0.504,0.094
14/04/2020 12:51:44.800,-1.168,0.520,0.117
14/04/2020 12:51:44.834,-1.164,0.535,0.168
14/04/2020 12:51:44.867,-0.848,0.477,0.207
14/04/2020 12:51:44.900,-0.688,0.422,0.184
14/04/2020 12:51:44.934,-0.918,0.488,0.207
14/04/2020 12:51:44.967,-1.070,0.551,0.230
14/04/2020 12:51:45.000,-1.027,0.453,0.199
14/04/2020 12:51:45.034,-0.898,0.387,0.227
14/04/2020 12:51:45.067,-0.832,0.422,0.207
14/04/2020 12:51:45.100,-0.816,0.484,0.176
14/04/2020 12:51:45.134,-0.828,0.516,0.168
14/04/2020 12:51:45.167,-0.828,0.461,0.176
14/04/2020 12:51:45.200,-0.848,0.426,0.176
14/04/2020 12:51:45.234,-0.895,0.414,0.176
14/04/2020 12:51:45.267,-0.930,0.395,0.145
14/04/2020 12:51:45.300,-0.938,0.395,0.113
14/04/2020 12:51:45.334,-0.922,0.387,0.082
14/04/2020 12:51:45.367,-0.926,0.363,0.051
14/04/2020 12:51:45.400,-0.945,0.355,0.020
14/04/2020 12:51:45.434,-1.102,0.363,-0.020
14/04/2020 12:51:45.467,-1.305,0.410,-0.051
14/04/2020 12:51:45.500,-1.254,0.422,-0.066
14/04/2020 12:51:45.534,-0.977,0.320,-0.117
14/04/2020 12:51:45.567,-0.828,0.258,-0.137
14/04/2020 12:51:45.600,-0.945,0.309,-0.141
14/04/2020 12:51:45.634,-1.074,0.352,-0.195
14/04/2020 12:51:45.667,-1.008,0.328,-0.227
14/04/2020 12:51:45.700,-0.930,0.281,-0.219
14/04/2020 12:51:45.734,-0.918,0.258,-0.191
14/04/2020 12:51:45.767,-0.887,0.281,-0.164
14/04/2020 12:51:45.800,-0.871,0.316,-0.184
14/04/2020 12:51:45.834,-0.918,0.332,-0.145
14/04/2020 12:51:45.867,-0.930,0.316,-0.094
14/04/2020 12:51:45.900,-0.918,0.313,-0.066
14/04/2020 12:51:45.934,-0.945,0.316,-0.027
14/04/2020 12:51:45.967,-0.984,0.301,0.012
14/04/2020 12:51:46.000,-0.910,0.230,0.035
14/04/2020 12:51:46.034,-0.922,0.246,0.063
14/04/2020 12:51:46.067,-1.000,0.262,0.105
14/04/2020 12:51:46.100,-1.078,0.242,0.121
14/04/2020 12:51:46.134,-1.324,0.250,0.141
14/04/2020 12:51:46.167,-1.176,0.258,0.230
14/04/2020 12:51:46.200,-0.855,0.227,0.262
14/04/2020 12:51:46.234,-0.695,0.172,0.211
14/04/2020 12:51:46.267,-0.832,0.227,0.160
14/04/2020 12:51:46.300,-1.102,0.387,0.195
14/04/2020 12:51:46.334,-1.137,0.449,0.254
14/04/2020 12:51:46.367,-0.934,0.418,0.203
14/04/2020 12:51:46.400,-0.816,0.355,0.164
14/04/2020 12:51:46.434,-0.797,0.363,0.152
14/04/2020 12:51:46.467,-0.852,0.359,0.117
14/04/2020 12:51:46.500,-0.887,0.371,0.086
14/04/2020 12:51:46.534,-0.875,0.383,0.051
14/04/2020 12:51:46.567,-0.855,0.379,0.000
14/04/2020 12:51:46.600,-0.855,0.352,-0.031
14/04/2020 12:51:46.634,-0.930,0.328,-0.047
14/04/2020 12:51:46.667,-0.953,0.332,-0.051
14/04/2020 12:51:46.700,-0.934,0.363,-0.039
14/04/2020 12:51:46.734,-0.984,0.398,-0.066
14/04/2020 12:51:46.767,-1.008,0.418,-0.078
14/04/2020 12:51:46.800,-1.246,0.418,-0.129
14/04/2020 12:51:46.834,-1.422,0.430,-0.094
14/04/2020 12:51:46.867,-1.367,0.363,-0.063
14/04/2020 12:51:46.900,-1.129,0.289,-0.047
14/04/2020 12:51:46.934,-0.895,0.227,-0.043
14/04/2020 12:51:46.967,-0.996,0.242,-0.063
14/04/2020 12:51:47.000,-1.043,0.273,-0.059
14/04/2020 12:51:47.034,-0.977,0.281,-0.059
14/04/2020 12:51:47.067,-0.828,0.266,-0.039
14/04/2020 12:51:47.100,-0.727,0.242,-0.027
14/04/2020 12:51:47.134,-0.668,0.250,-0.008
14/04/2020 12:51:47.167,-0.652,0.277,-0.008
14/04/2020 12:51:47.200,-0.660,0.305,-0.004
14/04/2020 12:51:47.234,-0.727,0.367,0.012
14/04/2020 12:51:47.267,-0.797,0.387,0.035
14/04/2020 12:51:47.300,-0.910,0.371,0.027
14/04/2020 12:51:47.334,-1.023,0.348,0.047
14/04/2020 12:51:47.367,-1.109,0.355,0.074
14/04/2020 12:51:47.400,-1.180,0.387,0.066
14/04/2020 12:51:47.434,-1.328,0.398,0.020
14/04/2020 12:51:47.467,-1.383,0.449,0.012
14/04/2020 12:51:47.500,-1.168,0.449,0.098
14/04/2020 12:51:47.534,-0.922,0.336,0.121
14/04/2020 12:51:47.567,-0.703,0.234,0.098
14/04/2020 12:51:47.600,-0.832,0.262,0.090
14/04/2020 12:51:47.634,-1.055,0.359,0.137
14/04/2020 12:51:47.667,-1.008,0.363,0.180
14/04/2020 12:51:47.700,-0.844,0.270,0.188
14/04/2020 12:51:47.734,-0.715,0.301,0.180
14/04/2020 12:51:47.767,-0.691,0.359,0.160
14/04/2020 12:51:47.800,-0.711,0.355,0.156
14/04/2020 12:51:47.834,-0.734,0.348,0.156
14/04/2020 12:51:47.867,-0.723,0.371,0.180
14/04/2020 12:51:47.900,-0.766,0.422,0.172
14/04/2020 12:51:47.934,-0.930,0.438,0.172
14/04/2020 12:51:47.967,-1.082,0.402,0.184
14/04/2020 12:51:48.000,-1.152,0.355,0.184
14/04/2020 12:51:48.034,-1.211,0.348,0.168
14/04/2020 12:51:48.067,-1.660,0.492,0.188
14/04/2020 12:51:48.100,-1.605,0.430,0.172
14/04/2020 12:51:48.134,-1.160,0.250,0.098
14/04/2020 12:51:48.167,-0.762,0.156,0.102
14/04/2020 12:51:48.200,-0.773,0.262,0.078
14/04/2020 12:51:48.234,-0.938,0.410,0.016
14/04/2020 12:51:48.267,-1.051,0.422,-0.055
14/04/2020 12:51:48.300,-0.883,0.352,-0.043
14/04/2020 12:51:48.334,-0.746,0.258,-0.020
14/04/2020 12:51:48.367,-0.664,0.223,0.008
14/04/2020 12:51:48.400,-0.668,0.262,-0.004
14/04/2020 12:51:48.434,-0.668,0.324,-0.027
14/04/2020 12:51:48.467,-0.711,0.348,-0.023
14/04/2020 12:51:48.500,-0.750,0.379,0.008
14/04/2020 12:51:48.534,-0.816,0.395,0.020
14/04/2020 12:51:48.567,-0.879,0.410,0.020
14/04/2020 12:51:48.600,-0.961,0.434,0.047
14/04/2020 12:51:48.634,-0.996,0.445,0.082
14/04/2020 12:51:48.667,-1.223,0.469,0.063
14/04/2020 12:51:48.700,-1.383,0.500,0.117
14/04/2020 12:51:48.734,-1.164,0.480,0.211
14/04/2020 12:51:48.767,-0.738,0.379,0.223
14/04/2020 12:51:48.800,-0.641,0.340,0.164
14/04/2020 12:51:48.834,-0.852,0.395,0.145
14/04/2020 12:51:48.867,-1.074,0.484,0.184
14/04/2020 12:51:48.900,-1.035,0.457,0.219
14/04/2020 12:51:48.934,-0.836,0.383,0.215
14/04/2020 12:51:48.967,-0.738,0.383,0.195
14/04/2020 12:51:49.000,-0.750,0.422,0.160
14/04/2020 12:51:49.034,-0.785,0.438,0.152
14/04/2020 12:51:49.067,-0.848,0.422,0.156
14/04/2020 12:51:49.100,-0.863,0.426,0.156
14/04/2020 12:51:49.134,-0.852,0.418,0.141
14/04/2020 12:51:49.167,-0.863,0.410,0.137
14/04/2020 12:51:49.200,-0.887,0.402,0.129
14/04/2020 12:51:49.234,-0.910,0.414,0.133
14/04/2020 12:51:49.267,-0.953,0.410,0.121
14/04/2020 12:51:49.300,-0.973,0.402,0.113
14/04/2020 12:51:49.334,-0.965,0.391,0.082
14/04/2020 12:51:49.367,-1.078,0.465,0.031
14/04/2020 12:51:49.400,-1.363,0.621,0.043
14/04/2020 12:51:49.434,-1.324,0.625,0.016
14/04/2020 12:51:49.467,-1.004,0.438,-0.051
14/04/2020 12:51:49.500,-0.809,0.277,-0.043
14/04/2020 12:51:49.534,-0.781,0.297,-0.023
14/04/2020 12:51:49.567,-0.855,0.406,-0.074
14/04/2020 12:51:49.600,-0.887,0.488,-0.117
14/04/2020 12:51:49.634,-0.859,0.465,-0.160
14/04/2020 12:51:49.667,-0.887,0.418,-0.191
14/04/2020 12:51:49.700,-0.926,0.391,-0.180
14/04/2020 12:51:49.734,-0.918,0.383,-0.168
14/04/2020 12:51:49.767,-0.961,0.367,-0.164
14/04/2020 12:51:49.800,-0.961,0.363,-0.164
14/04/2020 12:51:49.834,-0.961,0.348,-0.148
14/04/2020 12:51:49.867,-0.973,0.336,-0.109
14/04/2020 12:51:49.900,-0.973,0.336,-0.070
14/04/2020 12:51:49.934,-0.941,0.305,-0.027
14/04/2020 12:51:49.967,-0.930,0.273,0.008
14/04/2020 12:51:50.000,-0.922,0.246,0.066
14/04/2020 12:51:50.034,-0.922,0.223,0.137
14/04/2020 12:51:50.067,-1.039,0.219,0.152
14/04/2020 12:51:50.100,-1.211,0.223,0.180
14/04/2020 12:51:50.134,-0.977,0.246,0.309
14/04/2020 12:51:50.167,-0.801,0.195,0.348
14/04/2020 12:51:50.200,-0.789,0.148,0.313
14/04/2020 12:51:50.234,-0.906,0.121,0.285
14/04/2020 12:51:50.267,-1.059,0.191,0.313
14/04/2020 12:51:50.300,-1.148,0.297,0.348
14/04/2020 12:51:50.334,-1.047,0.332,0.332
14/04/2020 12:51:50.367,-0.867,0.301,0.285
14/04/2020 12:51:50.400,-0.828,0.293,0.270
14/04/2020 12:51:50.434,-0.910,0.309,0.277
14/04/2020 12:51:50.467,-0.914,0.289,0.238
14/04/2020 12:51:50.500,-0.906,0.320,0.211
14/04/2020 12:51:50.534,-0.906,0.332,0.195
14/04/2020 12:51:50.567,-0.879,0.328,0.133
14/04/2020 12:51:50.600,-0.855,0.340,0.074
14/04/2020 12:51:50.634,-0.852,0.340,0.043
14/04/2020 12:51:50.667,-0.883,0.340,0.016
14/04/2020 12:51:50.700,-0.941,0.383,0.012
14/04/2020 12:51:50.734,-1.129,0.414,-0.012
14/04/2020 12:51:50.767,-1.441,0.477,-0.012
14/04/2020 12:51:50.800,-1.359,0.426,0.016
14/04/2020 12:51:50.834,-1.117,0.336,0.000
14/04/2020 12:51:50.867,-0.934,0.297,0.020
14/04/2020 12:51:50.900,-0.938,0.344,0.000
14/04/2020 12:51:50.934,-0.992,0.379,-0.004
14/04/2020 12:51:50.967,-1.016,0.387,0.004
14/04/2020 12:51:51.000,-0.996,0.371,-0.020
14/04/2020 12:51:51.034,-0.906,0.297,-0.008
14/04/2020 12:51:51.067,-0.824,0.305,0.008
14/04/2020 12:51:51.100,-0.773,0.324,0.000
14/04/2020 12:51:51.134,-0.730,0.355,-0.020
14/04/2020 12:51:51.167,-0.734,0.359,-0.008
14/04/2020 12:51:51.200,-0.738,0.375,0.027
14/04/2020 12:51:51.234,-0.750,0.371,0.027
14/04/2020 12:51:51.267,-0.828,0.383,0.035
14/04/2020 12:51:51.300,-0.906,0.410,0.051
14/04/2020 12:51:51.334,-0.957,0.441,0.078
14/04/2020 12:51:51.367,-1.031,0.461,0.094
14/04/2020 12:51:51.400,-1.168,0.469,0.113
14/04/2020 12:51:51.434,-1.094,0.434,0.164
14/04/2020 12:51:51.467,-0.836,0.352,0.191
14/04/2020 12:51:51.500,-0.793,0.316,0.172
14/04/2020 12:51:51.534,-1.004,0.355,0.172
14/04/2020 12:51:51.567,-1.133,0.410,0.199
14/04/2020 12:51:51.600,-0.996,0.371,0.223
14/04/2020 12:51:51.634,-0.793,0.348,0.215
14/04/2020 12:51:51.667,-0.699,0.379,0.180
14/04/2020 12:51:51.700,-0.723,0.410,0.141
14/04/2020 12:51:51.734,-0.758,0.398,0.145
14/04/2020 12:51:51.767,-0.840,0.387,0.172
14/04/2020 12:51:51.800,-0.879,0.402,0.176
14/04/2020 12:51:51.834,-0.875,0.434,0.160
14/04/2020 12:51:51.867,-0.910,0.449,0.195
14/04/2020 12:51:51.900,-0.895,0.410,0.180
14/04/2020 12:51:51.934,-0.938,0.410,0.168
14/04/2020 12:51:51.967,-1.230,0.500,0.188
14/04/2020 12:51:52.000,-1.625,0.563,0.262
14/04/2020 12:51:52.034,-1.309,0.398,0.191
14/04/2020 12:51:52.067,-0.852,0.234,0.129
14/04/2020 12:51:52.100,-0.832,0.270,0.141
14/04/2020 12:51:52.134,-1.035,0.379,0.086
14/04/2020 12:51:52.167,-1.117,0.387,0.012
14/04/2020 12:51:52.200,-0.992,0.348,0.000
14/04/2020 12:51:52.234,-0.879,0.289,0.016
14/04/2020 12:51:52.267,-0.840,0.281,0.012
14/04/2020 12:51:52.300,-0.805,0.324,-0.008
14/04/2020 12:51:52.334,-0.785,0.344,-0.008
14/04/2020 12:51:52.367,-0.844,0.355,0.008
14/04/2020 12:51:52.400,-0.832,0.344,0.023
14/04/2020 12:51:52.434,-0.824,0.328,0.020
14/04/2020 12:51:52.467,-0.867,0.324,0.023
14/04/2020 12:51:52.500,-0.891,0.355,0.020
14/04/2020 12:51:52.534,-0.867,0.395,0.035
14/04/2020 12:51:52.567,-0.895,0.422,0.066
14/04/2020 12:51:52.600,-0.977,0.410,0.055
14/04/2020 12:51:52.634,-1.129,0.402,0.102
14/04/2020 12:51:52.667,-1.051,0.352,0.129
14/04/2020 12:51:52.700,-0.855,0.293,0.145
14/04/2020 12:51:52.734,-0.941,0.316,0.137
14/04/2020 12:51:52.767,-0.977,0.367,0.125
14/04/2020 12:51:52.800,-1.004,0.410,0.141
14/04/2020 12:51:52.834,-0.934,0.391,0.168
14/04/2020 12:51:52.867,-0.840,0.371,0.184
14/04/2020 12:51:52.900,-0.809,0.398,0.168
14/04/2020 12:51:52.934,-0.844,0.379,0.156
14/04/2020 12:51:52.967,-0.852,0.398,0.148
14/04/2020 12:51:53.000,-0.840,0.395,0.184
14/04/2020 12:51:53.034,-0.785,0.383,0.180
14/04/2020 12:51:53.067,-0.816,0.402,0.156
14/04/2020 12:51:53.100,-0.910,0.422,0.156
14/04/2020 12:51:53.134,-1.000,0.395,0.164
14/04/2020 12:51:53.167,-1.031,0.352,0.156
14/04/2020 12:51:53.200,-1.035,0.336,0.148
14/04/2020 12:51:53.234,-1.313,0.441,0.164
14/04/2020 12:51:53.267,-1.402,0.355,0.160
14/04/2020 12:51:53.300,-1.078,0.188,0.105
14/04/2020 12:51:53.334,-0.895,0.109,0.117
14/04/2020 12:51:53.367,-1.023,0.223,0.121
14/04/2020 12:51:53.400,-1.188,0.344,0.105
14/04/2020 12:51:53.434,-1.176,0.316,0.070
14/04/2020 12:51:53.467,-1.059,0.238,0.066
14/04/2020 12:51:53.500,-0.973,0.215,0.086
14/04/2020 12:51:53.534,-0.938,0.223,0.086
14/04/2020 12:51:53.567,-0.879,0.250,0.055
14/04/2020 12:51:53.600,-0.926,0.254,0.020
14/04/2020 12:51:53.634,-0.887,0.262,0.008
14/04/2020 12:51:53.667,-0.813,0.266,0.000
14/04/2020 12:51:53.700,-0.930,0.309,0.012
14/04/2020 12:51:53.734,-0.980,0.313,0.012
14/04/2020 12:51:53.767,-1.051,0.309,-0.004
14/04/2020 12:51:53.800,-1.188,0.348,0.031
14/04/2020 12:51:53.834,-1.117,0.391,0.070
14/04/2020 12:51:53.867,-0.953,0.375,0.082
14/04/2020 12:51:53.900,-0.848,0.363,0.082
14/04/2020 12:51:53.934,-0.848,0.391,0.082
14/04/2020 12:51:53.967,-0.922,0.406,0.043
14/04/2020 12:51:54.000,-0.973,0.383,0.008
14/04/2020 12:51:54.034,-0.945,0.375,-0.008
14/04/2020 12:51:54.067,-0.922,0.383,-0.027
14/04/2020 12:51:54.100,-0.895,0.379,-0.047
14/04/2020 12:51:54.134,-0.914,0.363,-0.082
14/04/2020 12:51:54.167,-0.930,0.387,-0.102
14/04/2020 12:51:54.200,-0.992,0.430,-0.086
14/04/2020 12:51:54.234,-0.988,0.441,-0.043
14/04/2020 12:51:54.267,-0.914,0.426,-0.031
14/04/2020 12:51:54.300,-0.895,0.430,0.027
14/04/2020 12:51:54.334,-0.867,0.426,0.090
14/04/2020 12:51:54.367,-0.891,0.430,0.121
14/04/2020 12:51:54.400,-0.914,0.395,0.152
14/04/2020 12:51:54.434,-0.875,0.445,0.215
14/04/2020 12:51:54.467,-0.785,0.406,0.277
14/04/2020 12:51:54.500,-0.828,0.352,0.262
14/04/2020 12:51:54.534,-1.078,0.578,0.363
14/04/2020 12:51:54.567,-1.176,0.395,0.363
14/04/2020 12:51:54.600,-1.098,0.289,0.320
14/04/2020 12:51:54.634,-1.012,0.348,0.344
14/04/2020 12:51:54.667,-1.039,0.414,0.285
14/04/2020 12:51:54.700,-1.059,0.363,0.188
14/04/2020 12:51:54.734,-1.059,0.336,0.172
14/04/2020 12:51:54.767,-1.063,0.344,0.188
14/04/2020 12:51:54.800,-1.063,0.340,0.156
14/04/2020 12:51:54.834,-1.074,0.355,0.125
14/04/2020 12:51:54.867,-1.043,0.398,0.117
14/04/2020 12:51:54.900,-0.977,0.418,0.102
14/04/2020 12:51:54.934,-0.945,0.430,0.086
14/04/2020 12:51:54.967,-0.883,0.418,0.094
14/04/2020 12:51:55.000,-0.816,0.414,0.082
14/04/2020 12:51:55.034,-0.785,0.398,0.086
14/04/2020 12:51:55.067,-0.781,0.410,0.094
14/04/2020 12:51:55.100,-0.793,0.426,0.102
14/04/2020 12:51:55.134,-0.949,0.457,0.086
14/04/2020 12:51:55.167,-1.090,0.426,0.070
14/04/2020 12:51:55.200,-1.047,0.406,0.090
14/04/2020 12:51:55.234,-0.828,0.336,0.109
14/04/2020 12:51:55.267,-0.652,0.270,0.082
14/04/2020 12:51:55.300,-0.789,0.320,0.031
14/04/2020 12:51:55.334,-1.027,0.379,0.008
14/04/2020 12:51:55.367,-1.133,0.359,0.027
14/04/2020 12:51:55.400,-0.941,0.344,0.055
14/04/2020 12:51:55.434,-0.789,0.355,0.078
14/04/2020 12:51:55.467,-0.813,0.402,0.066
14/04/2020 12:51:55.500,-0.848,0.406,0.051
14/04/2020 12:51:55.534,-0.883,0.387,0.074
14/04/2020 12:51:55.567,-0.914,0.402,0.117
14/04/2020 12:51:55.600,-0.926,0.426,0.156
14/04/2020 12:51:55.634,-0.918,0.457,0.156
14/04/2020 12:51:55.667,-0.914,0.480,0.180
14/04/2020 12:51:55.700,-0.926,0.488,0.195
14/04/2020 12:51:55.734,-0.988,0.488,0.207
14/04/2020 12:51:55.767,-1.285,0.586,0.254
14/04/2020 12:51:55.800,-1.488,0.504,0.254
14/04/2020 12:51:55.834,-1.223,0.316,0.191
14/04/2020 12:51:55.867,-0.844,0.281,0.262
14/04/2020 12:51:55.900,-0.816,0.418,0.223
14/04/2020 12:51:55.934,-0.961,0.523,0.074
14/04/2020 12:51:55.967,-1.160,0.422,0.016
14/04/2020 12:51:56.000,-1.180,0.309,0.012
14/04/2020 12:51:56.034,-1.063,0.223,0.043
14/04/2020 12:51:56.067,-1.070,0.238,0.055
14/04/2020 12:51:56.100,-0.949,0.313,0.023
14/04/2020 12:51:56.134,-0.816,0.371,-0.020
14/04/2020 12:51:56.167,-0.719,0.391,-0.016
14/04/2020 12:51:56.200,-0.766,0.383,0.012
14/04/2020 12:51:56.234,-0.766,0.355,0.020
14/04/2020 12:51:56.267,-0.793,0.348,0.020
14/04/2020 12:51:56.300,-0.848,0.367,0.031
14/04/2020 12:51:56.334,-0.840,0.402,0.051
14/04/2020 12:51:56.367,-1.059,0.449,0.031
14/04/2020 12:51:56.400,-1.141,0.449,0.074
14/04/2020 12:51:56.434,-0.883,0.414,0.125
14/04/2020 12:51:56.467,-0.684,0.348,0.152
14/04/2020 12:51:56.500,-0.840,0.367,0.125
14/04/2020 12:51:56.534,-1.023,0.410,0.133
14/04/2020 12:51:56.567,-1.105,0.387,0.164
14/04/2020 12:51:56.600,-1.004,0.363,0.180
14/04/2020 12:51:56.634,-0.852,0.387,0.164
14/04/2020 12:51:56.667,-0.820,0.395,0.156
14/04/2020 12:51:56.700,-0.859,0.402,0.152
14/04/2020 12:51:56.734,-0.898,0.395,0.152
14/04/2020 12:51:56.767,-0.910,0.383,0.176
14/04/2020 12:51:56.800,-0.863,0.383,0.164
14/04/2020 12:51:56.834,-0.855,0.383,0.164
14/04/2020 12:51:56.867,-0.832,0.391,0.152
14/04/2020 12:51:56.900,-0.902,0.406,0.148
14/04/2020 12:51:56.934,-0.973,0.395,0.125
14/04/2020 12:51:56.967,-1.266,0.504,0.141
14/04/2020 12:51:57.000,-1.523,0.488,0.195
14/04/2020 12:51:57.034,-1.176,0.309,0.102
14/04/2020 12:51:57.067,-0.832,0.230,0.090
14/04/2020 12:51:57.100,-0.844,0.293,0.066
14/04/2020 12:51:57.134,-0.949,0.406,-0.012
14/04/2020 12:51:57.167,-0.980,0.391,-0.055
14/04/2020 12:51:57.200,-1.000,0.289,-0.102
14/04/2020 12:51:57.234,-0.961,0.262,-0.137
14/04/2020 12:51:57.267,-0.961,0.309,-0.145
14/04/2020 12:51:57.300,-0.914,0.359,-0.148
14/04/2020 12:51:57.334,-0.895,0.402,-0.195
14/04/2020 12:51:57.367,-0.855,0.480,-0.191
14/04/2020 12:51:57.400,-0.832,0.484,-0.191
14/04/2020 12:51:57.434,-0.844,0.449,-0.172
14/04/2020 12:51:57.467,-0.871,0.469,-0.141
14/04/2020 12:51:57.500,-0.902,0.488,-0.121
14/04/2020 12:51:57.534,-0.910,0.492,-0.102
14/04/2020 12:51:57.567,-0.934,0.496,-0.074
14/04/2020 12:51:57.600,-0.914,0.488,-0.039
14/04/2020 12:51:57.634,-1.000,0.477,-0.027
14/04/2020 12:51:57.667,-1.020,0.457,0.020
14/04/2020 12:51:57.700,-0.777,0.371,0.086
14/04/2020 12:51:57.734,-0.547,0.328,0.117
14/04/2020 12:51:57.767,-0.637,0.363,0.141
14/04/2020 12:51:57.800,-0.746,0.406,0.137
14/04/2020 12:51:57.834,-0.824,0.434,0.129
14/04/2020 12:51:57.867,-0.805,0.410,0.172
14/04/2020 12:51:57.900,-0.793,0.406,0.180
14/04/2020 12:51:57.934,-0.840,0.414,0.191
14/04/2020 12:51:57.967,-0.898,0.414,0.188
14/04/2020 12:51:58.000,-0.957,0.395,0.176
14/04/2020 12:51:58.034,-0.973,0.383,0.184
14/04/2020 12:51:58.067,-0.973,0.398,0.195
14/04/2020 12:51:58.100,-0.961,0.402,0.203
14/04/2020 12:51:58.134,-0.961,0.387,0.219
14/04/2020 12:51:58.167,-0.961,0.379,0.223
14/04/2020 12:51:58.200,-0.938,0.355,0.215
14/04/2020 12:51:58.234,-0.922,0.348,0.195
14/04/2020 12:51:58.267,-1.012,0.395,0.176
14/04/2020 12:51:58.300,-1.219,0.488,0.191
14/04/2020 12:51:58.334,-1.188,0.414,0.129
14/04/2020 12:51:58.367,-0.969,0.297,0.023
14/04/2020 12:51:58.400,-0.813,0.227,-0.020
14/04/2020 12:51:58.434,-0.844,0.246,-0.059
14/04/2020 12:51:58.467,-0.914,0.305,-0.164
14/04/2020 12:51:58.500,-0.965,0.355,-0.262
14/04/2020 12:51:58.534,-0.953,0.340,-0.289
14/04/2020 12:51:58.567,-0.984,0.320,-0.297
14/04/2020 12:51:58.600,-0.996,0.316,-0.297
14/04/2020 12:51:58.634,-1.004,0.297,-0.320
14/04/2020 12:51:58.667,-0.992,0.297,-0.313
14/04/2020 12:51:58.700,-1.012,0.320,-0.316
14/04/2020 12:51:58.734,-0.992,0.320,-0.316
14/04/2020 12:51:58.767,-1.012,0.324,-0.309
14/04/2020 12:51:58.800,-1.039,0.301,-0.270
14/04/2020 12:51:58.834,-1.035,0.273,-0.246
14/04/2020 12:51:58.867,-1.043,0.273,-0.195
14/04/2020 12:51:58.900,-1.043,0.277,-0.125
14/04/2020 12:51:58.934,-0.988,0.262,-0.078
14/04/2020 12:51:58.967,-1.066,0.262,-0.055
14/04/2020 12:51:59.000,-1.125,0.309,-0.020
14/04/2020 12:51:59.034,-1.055,0.320,0.047
14/04/2020 12:51:59.067,-0.910,0.285,0.113
14/04/2020 12:51:59.100,-0.793,0.219,0.137
14/04/2020 12:51:59.134,-0.859,0.219,0.152
14/04/2020 12:51:59.167,-0.922,0.242,0.191
14/04/2020 12:51:59.200,-0.914,0.238,0.223
14/04/2020 12:51:59.234,-0.852,0.219,0.230
14/04/2020 12:51:59.267,-0.816,0.219,0.238
14/04/2020 12:51:59.300,-0.836,0.254,0.258
14/04/2020 12:51:59.334,-0.891,0.273,0.227
14/04/2020 12:51:59.367,-0.918,0.305,0.215
14/04/2020 12:51:59.400,-0.926,0.316,0.230
14/04/2020 12:51:59.434,-0.918,0.344,0.223
14/04/2020 12:51:59.467,-0.895,0.352,0.219
14/04/2020 12:51:59.500,-0.902,0.367,0.207
14/04/2020 12:51:59.534,-0.883,0.379,0.215
14/04/2020 12:51:59.567,-0.906,0.391,0.211
14/04/2020 12:51:59.600,-0.934,0.402,0.199
14/04/2020 12:51:59.634,-1.043,0.418,0.203
14/04/2020 12:51:59.667,-1.293,0.523,0.230
14/04/2020 12:51:59.700,-1.359,0.473,0.246
14/04/2020 12:51:59.734,-1.094,0.297,0.168
14/04/2020 12:51:59.767,-0.762,0.254,0.164
14/04/2020 12:51:59.800,-0.840,0.379,0.191
14/04/2020 12:51:59.834,-1.008,0.484,0.137
14/04/2020 12:51:59.867,-1.121,0.434,0.063
14/04/2020 12:51:59.900,-1.090,0.332,0.063
14/04/2020 12:51:59.934,-1.074,0.254,0.117
14/04/2020 12:51:59.967,-0.965,0.246,0.137
14/04/2020 12:52:00.000,-0.898,0.309,0.086
14/04/2020 12:52:00.034,-0.840,0.363,0.055
14/04/2020 12:52:00.067,-0.891,0.383,0.078
14/04/2020 12:52:00.100,-0.797,0.355,0.063
14/04/2020 12:52:00.134,-0.734,0.336,0.070
14/04/2020 12:52:00.167,-0.746,0.355,0.082
14/04/2020 12:52:00.200,-0.801,0.406,0.094
14/04/2020 12:52:00.234,-0.840,0.438,0.102
14/04/2020 12:52:00.267,-0.813,0.434,0.117
14/04/2020 12:52:00.300,-0.996,0.449,0.113
14/04/2020 12:52:00.334,-1.191,0.441,0.117
14/04/2020 12:52:00.367,-1.004,0.383,0.137
14/04/2020 12:52:00.400,-0.777,0.320,0.141
14/04/2020 12:52:00.434,-0.820,0.293,0.113
14/04/2020 12:52:00.467,-0.945,0.418,0.082
14/04/2020 12:52:00.500,-1.027,0.461,0.102
14/04/2020 12:52:00.534,-0.941,0.410,0.109
14/04/2020 12:52:00.567,-0.855,0.359,0.129
14/04/2020 12:52:00.600,-0.848,0.391,0.125
14/04/2020 12:52:00.634,-0.895,0.453,0.133
14/04/2020 12:52:00.667,-0.926,0.473,0.148
14/04/2020 12:52:00.700,-0.871,0.434,0.180
14/04/2020 12:52:00.734,-0.797,0.449,0.188
14/04/2020 12:52:00.767,-0.801,0.480,0.219
14/04/2020 12:52:00.800,-0.863,0.508,0.215
14/04/2020 12:52:00.834,-0.938,0.488,0.227
14/04/2020 12:52:00.867,-1.004,0.430,0.242
14/04/2020 12:52:00.900,-1.262,0.559,0.270
14/04/2020 12:52:00.934,-1.445,0.574,0.305
14/04/2020 12:52:00.967,-1.160,0.359,0.184
14/04/2020 12:52:01.000,-0.930,0.262,0.148
14/04/2020 12:52:01.034,-1.063,0.336,0.176
14/04/2020 12:52:01.067,-1.176,0.387,0.094
14/04/2020 12:52:01.100,-1.156,0.340,0.023
14/04/2020 12:52:01.134,-1.055,0.230,0.016
14/04/2020 12:52:01.167,-0.941,0.207,0.012
14/04/2020 12:52:01.200,-0.949,0.234,-0.008
14/04/2020 12:52:01.234,-0.879,0.246,-0.031
14/04/2020 12:52:01.267,-0.781,0.246,-0.035
14/04/2020 12:52:01.300,-0.758,0.258,-0.035
14/04/2020 12:52:01.334,-0.746,0.254,-0.023
14/04/2020 12:52:01.367,-0.773,0.258,-0.027
14/04/2020 12:52:01.400,-0.840,0.273,-0.023
14/04/2020 12:52:01.434,-0.844,0.320,0.004
14/04/2020 12:52:01.467,-0.938,0.387,0.023
14/04/2020 12:52:01.500,-1.238,0.422,0.047
14/04/2020 12:52:01.534,-1.207,0.426,0.125
14/04/2020 12:52:01.567,-0.953,0.336,0.203
14/04/2020 12:52:01.600,-0.828,0.293,0.223
14/04/2020 12:52:01.634,-1.023,0.371,0.238
14/04/2020 12:52:01.667,-1.078,0.398,0.215
14/04/2020 12:52:01.700,-1.047,0.391,0.191
14/04/2020 12:52:01.734,-0.945,0.398,0.219
14/04/2020 12:52:01.767,-0.832,0.418,0.207
14/04/2020 12:52:01.800,-0.793,0.441,0.195
14/04/2020 12:52:01.834,-0.816,0.477,0.219
14/04/2020 12:52:01.867,-0.867,0.500,0.246
14/04/2020 12:52:01.900,-0.859,0.488,0.262
14/04/2020 12:52:01.934,-0.855,0.496,0.270
14/04/2020 12:52:01.967,-0.852,0.508,0.273
14/04/2020 12:52:02.000,-0.859,0.492,0.238
14/04/2020 12:52:02.034,-0.895,0.492,0.188
14/04/2020 12:52:02.067,-0.961,0.613,0.063
14/04/2020 12:52:02.100,-1.039,0.609,0.016
14/04/2020 12:52:02.134,-1.148,0.605,-0.031
14/04/2020 12:52:02.167,-1.156,0.574,-0.121
14/04/2020 12:52:02.200,-1.008,0.574,-0.234
14/04/2020 12:52:02.234,-0.934,0.563,-0.277
14/04/2020 12:52:02.267,-0.910,0.648,-0.250
14/04/2020 12:52:02.300,-0.855,0.625,-0.246
14/04/2020 12:52:02.334,-0.863,0.629,-0.313
14/04/2020 12:52:02.367,-0.832,0.660,-0.172
14/04/2020 12:52:02.400,-0.820,0.543,-0.125
14/04/2020 12:52:02.434,-0.730,0.598,-0.121
14/04/2020 12:52:02.467,-0.707,0.539,0.023
14/04/2020 12:52:02.500,-0.664,0.535,0.027
14/04/2020 12:52:02.534,-0.605,0.516,0.063
14/04/2020 12:52:02.567,-0.543,0.660,0.117
14/04/2020 12:52:02.600,-0.512,0.672,0.215
14/04/2020 12:52:02.634,-0.512,0.527,0.340
14/04/2020 12:52:02.667,-0.496,0.777,0.313
14/04/2020 12:52:02.700,-0.527,0.684,0.406
14/04/2020 12:52:02.734,-0.531,0.656,0.367
14/04/2020 12:52:02.767,-0.625,0.574,0.414
14/04/2020 12:52:02.800,-0.645,0.734,0.352
14/04/2020 12:52:02.834,-0.641,0.645,0.285
14/04/2020 12:52:02.867,-0.762,0.785,0.227
14/04/2020 12:52:02.900,-0.883,0.922,0.320
14/04/2020 12:52:02.934,-0.926,0.539,0.449
14/04/2020 12:52:02.967,-0.895,1.016,0.336
14/04/2020 12:52:03.000,-0.813,0.648,0.281
14/04/2020 12:52:03.034,-0.785,0.762,0.211
14/04/2020 12:52:03.067,-0.781,0.883,0.250
14/04/2020 12:52:03.100,-0.711,0.934,0.246
14/04/2020 12:52:03.134,-0.547,0.906,0.230
14/04/2020 12:52:03.167,-0.488,0.875,0.316
14/04/2020 12:52:03.200,-0.387,0.777,0.305
14/04/2020 12:52:03.234,-0.344,0.797,0.363
14/04/2020 12:52:03.267,-0.301,0.738,0.496
14/04/2020 12:52:03.300,-0.230,0.664,0.508
14/04/2020 12:52:03.334,-0.195,0.652,0.566
14/04/2020 12:52:03.367,-0.191,0.625,0.605
14/04/2020 12:52:03.400,-0.223,0.637,0.625
14/04/2020 12:52:03.434,-0.246,0.648,0.648
14/04/2020 12:52:03.467,-0.262,0.625,0.668
14/04/2020 12:52:03.500,-0.309,0.645,0.680
14/04/2020 12:52:03.534,-0.316,0.641,0.688
14/04/2020 12:52:03.567,-0.309,0.617,0.699
14/04/2020 12:52:03.600,-0.328,0.605,0.680
14/04/2020 12:52:03.634,-0.344,0.609,0.676
14/04/2020 12:52:03.667,-0.371,0.590,0.672
14/04/2020 12:52:03.700,-0.383,0.582,0.648
14/04/2020 12:52:03.734,-0.383,0.578,0.641
14/04/2020 12:52:03.767,-0.395,0.566,0.633
14/04/2020 12:52:03.800,-0.410,0.586,0.621
14/04/2020 12:52:03.834,-0.434,0.598,0.645
14/04/2020 12:52:03.867,-0.426,0.594,0.641
14/04/2020 12:52:03.900,-0.422,0.598,0.637
14/04/2020 12:52:03.934,-0.434,0.621,0.633
14/04/2020 12:52:03.967,-0.469,0.656,0.625
14/04/2020 12:52:04.000,-0.539,0.703,0.633
14/04/2020 12:52:04.034,-0.543,0.688,0.660
14/04/2020 12:52:04.067,-0.492,0.602,0.590
14/04/2020 12:52:04.100,-0.527,0.641,0.594
14/04/2020 12:52:04.134,-0.539,0.664,0.633
14/04/2020 12:52:04.167,-0.438,0.469,0.539
14/04/2020 12:52:04.200,-0.523,0.527,0.426
14/04/2020 12:52:04.234,-0.633,0.586,0.531
14/04/2020 12:52:04.267,-0.695,0.598,0.551
14/04/2020 12:52:04.300,-0.789,0.672,0.453
14/04/2020 12:52:04.334,-0.898,0.887,0.582
14/04/2020 12:52:04.367,-0.793,0.891,0.570
14/04/2020 12:52:04.400,-0.621,0.797,0.406
14/04/2020 12:52:04.434,-0.523,0.395,0.348
14/04/2020 12:52:04.467,-0.535,1.059,0.395
14/04/2020 12:52:04.500,-0.348,0.484,0.195
14/04/2020 12:52:04.534,-0.422,0.535,0.121
14/04/2020 12:52:04.567,-0.594,0.633,0.215
14/04/2020 12:52:04.600,-0.578,0.691,0.281
14/04/2020 12:52:04.634,-0.527,0.738,0.250
14/04/2020 12:52:04.667,-0.563,0.906,0.262
14/04/2020 12:52:04.700,-0.539,1.039,0.285
14/04/2020 12:52:04.734,-0.426,1.004,0.285
14/04/2020 12:52:04.767,-0.398,0.898,0.227
14/04/2020 12:52:04.800,-0.445,0.840,0.207
14/04/2020 12:52:04.834,-0.473,0.871,0.266
14/04/2020 12:52:04.867,-0.465,0.895,0.285
14/04/2020 12:52:04.900,-0.480,0.926,0.309
14/04/2020 12:52:04.934,-0.504,0.895,0.348
14/04/2020 12:52:04.967,-0.520,0.844,0.477
14/04/2020 12:52:05.000,-0.465,0.727,0.523
14/04/2020 12:52:05.034,-0.500,0.688,0.559
14/04/2020 12:52:05.067,-0.605,0.816,0.586
14/04/2020 12:52:05.100,-0.527,0.762,0.539
14/04/2020 12:52:05.134,-0.551,0.660,0.559
14/04/2020 12:52:05.167,-0.660,0.754,0.609
14/04/2020 12:52:05.200,-0.684,0.711,0.570
14/04/2020 12:52:05.234,-0.633,0.664,0.559
14/04/2020 12:52:05.267,-0.543,0.613,0.563
14/04/2020 12:52:05.300,-0.484,0.625,0.563
14/04/2020 12:52:05.334,-0.398,0.543,0.582
14/04/2020 12:52:05.367,-0.316,0.523,0.574
14/04/2020 12:52:05.400,-0.316,0.605,0.582
14/04/2020 12:52:05.434,-0.254,0.664,0.531
14/04/2020 12:52:05.467,-0.148,0.641,0.477
14/04/2020 12:52:05.500,-0.137,0.680,0.473
14/04/2020 12:52:05.534,-0.156,0.688,0.430
14/04/2020 12:52:05.567,-0.207,0.758,0.430
14/04/2020 12:52:05.600,-0.250,0.863,0.469
14/04/2020 12:52:05.634,-0.324,0.871,0.457
14/04/2020 12:52:05.667,-0.375,0.926,0.449
14/04/2020 12:52:05.700,-0.395,0.918,0.391
14/04/2020 12:52:05.734,-0.461,0.980,0.367
14/04/2020 12:52:05.767,-0.496,0.992,0.344
14/04/2020 12:52:05.800,-0.484,0.965,0.309
14/04/2020 12:52:05.834,-0.477,0.965,0.262
14/04/2020 12:52:05.867,-0.473,1.141,0.281
14/04/2020 12:52:05.900,-0.391,1.098,0.336
14/04/2020 12:52:05.934,-0.336,0.844,0.340
14/04/2020 12:52:05.967,-0.375,0.727,0.371
14/04/2020 12:52:06.000,-0.449,0.754,0.422
14/04/2020 12:52:06.034,-0.453,0.770,0.438
14/04/2020 12:52:06.067,-0.465,0.797,0.465
14/04/2020 12:52:06.100,-0.492,0.758,0.512
14/04/2020 12:52:06.134,-0.547,0.750,0.551
14/04/2020 12:52:06.167,-0.586,0.730,0.598
14/04/2020 12:52:06.200,-0.605,0.691,0.613
14/04/2020 12:52:06.234,-0.641,0.793,0.703
14/04/2020 12:52:06.267,-0.637,0.637,0.656
14/04/2020 12:52:06.300,-0.645,0.605,0.582
14/04/2020 12:52:06.334,-0.617,0.770,0.547
14/04/2020 12:52:06.367,-0.527,0.777,0.516
14/04/2020 12:52:06.400,-0.441,0.668,0.496
14/04/2020 12:52:06.434,-0.402,0.563,0.496
14/04/2020 12:52:06.467,-0.344,0.438,0.492
14/04/2020 12:52:06.500,-0.297,0.355,0.473
14/04/2020 12:52:06.534,-0.230,0.281,0.480
14/04/2020 12:52:06.567,-0.230,0.273,0.492
14/04/2020 12:52:06.600,-0.277,0.328,0.516
14/04/2020 12:52:06.634,-0.387,0.359,0.512
14/04/2020 12:52:06.667,-0.480,0.367,0.547
14/04/2020 12:52:06.700,-0.602,0.383,0.555
14/04/2020 12:52:06.734,-0.746,0.438,0.582
14/04/2020 12:52:06.767,-0.914,0.473,0.586
14/04/2020 12:52:06.800,-0.988,0.484,0.578
14/04/2020 12:52:06.834,-1.027,0.453,0.578
14/04/2020 12:52:06.867,-1.070,0.492,0.633
14/04/2020 12:52:06.900,-1.070,0.426,0.660
14/04/2020 12:52:06.934,-1.000,0.445,0.695
14/04/2020 12:52:06.967,-0.953,0.535,0.652
14/04/2020 12:52:07.000,-0.977,0.676,0.660
14/04/2020 12:52:07.034,-0.832,0.734,0.738
14/04/2020 12:52:07.067,-0.609,0.336,0.465
14/04/2020 12:52:07.100,-0.863,0.332,0.387
14/04/2020 12:52:07.134,-0.953,0.320,0.488
14/04/2020 12:52:07.167,-0.832,0.168,0.473
14/04/2020 12:52:07.200,-1.512,-0.234,1.125
14/04/2020 12:52:07.234,-0.906,0.219,0.555
14/04/2020 12:52:07.267,-0.863,0.492,0.508
14/04/2020 12:52:07.300,-0.895,0.367,0.262
14/04/2020 12:52:07.334,-0.781,0.395,0.477
14/04/2020 12:52:07.367,-0.566,0.563,0.418
14/04/2020 12:52:07.400,-0.777,0.539,0.355
14/04/2020 12:52:07.434,-0.590,0.633,0.344
14/04/2020 12:52:07.467,-0.473,0.742,0.359
14/04/2020 12:52:07.500,-0.348,0.656,0.367
14/04/2020 12:52:07.534,-0.359,0.625,0.648
14/04/2020 12:52:07.567,-0.336,0.523,0.582
14/04/2020 12:52:07.600,-0.242,0.516,0.484
14/04/2020 12:52:07.634,-0.258,0.605,0.750
14/04/2020 12:52:07.667,-0.320,0.645,0.574
14/04/2020 12:52:07.700,-0.211,0.836,0.453
14/04/2020 12:52:07.734,-0.227,0.664,0.496
14/04/2020 12:52:07.767,-0.363,0.691,0.508
14/04/2020 12:52:07.800,-0.453,0.863,0.305
14/04/2020 12:52:07.834,-0.773,1.141,0.449
14/04/2020 12:52:07.867,-1.348,0.793,0.672
14/04/2020 12:52:07.900,-0.934,1.227,0.414
14/04/2020 12:52:07.934,-0.906,0.707,0.422
14/04/2020 12:52:07.967,-0.684,0.836,0.367
14/04/2020 12:52:08.000,-0.527,0.609,0.375
14/04/2020 12:52:08.034,-0.559,0.566,0.484
14/04/2020 12:52:08.067,-0.582,0.680,0.598
14/04/2020 12:52:08.100,-0.445,0.559,0.617
14/04/2020 12:52:08.134,-0.410,0.453,0.625
14/04/2020 12:52:08.167,-0.609,0.379,0.637
14/04/2020 12:52:08.200,-0.742,0.441,0.715
14/04/2020 12:52:08.234,-0.730,0.430,0.648
14/04/2020 12:52:08.267,-0.883,0.688,0.578
14/04/2020 12:52:08.300,-0.969,0.695,0.438
14/04/2020 12:52:08.334,-0.824,0.496,0.398
14/04/2020 12:52:08.367,-0.738,0.527,0.539
14/04/2020 12:52:08.400,-0.469,0.582,0.523
14/04/2020 12:52:08.434,-0.387,0.602,0.508
14/04/2020 12:52:08.467,-0.277,0.523,0.477
14/04/2020 12:52:08.500,-0.148,0.438,0.402
14/04/2020 12:52:08.534,-0.047,0.484,0.402
14/04/2020 12:52:08.567,0.176,0.367,0.391
14/04/2020 12:52:08.600,-0.027,0.805,0.320
14/04/2020 12:52:08.634,-1.160,1.613,0.719
14/04/2020 12:52:08.667,-0.879,0.969,0.578
14/04/2020 12:52:08.700,-0.664,0.809,0.156
14/04/2020 12:52:08.734,-0.887,0.641,0.238
14/04/2020 12:52:08.767,-1.090,0.930,0.313
14/04/2020 12:52:08.800,-0.875,0.848,0.215
14/04/2020 12:52:08.834,-0.871,0.723,0.227
14/04/2020 12:52:08.867,-0.875,0.527,0.441
14/04/2020 12:52:08.900,-0.754,0.563,0.578
14/04/2020 12:52:08.934,-0.742,0.316,0.512
14/04/2020 12:52:08.967,-0.883,0.203,0.582
14/04/2020 12:52:09.000,-0.992,0.168,0.656
14/04/2020 12:52:09.034,-1.020,0.480,0.594
14/04/2020 12:52:09.067,-1.059,0.348,0.477
14/04/2020 12:52:09.100,-0.813,0.375,0.301
14/04/2020 12:52:09.134,-0.754,0.395,0.625
14/04/2020 12:52:09.167,-0.609,0.469,0.797
14/04/2020 12:52:09.200,-0.391,0.367,0.660
14/04/2020 12:52:09.234,-0.316,0.402,0.625
14/04/2020 12:52:09.267,-0.195,0.496,0.555
14/04/2020 12:52:09.300,-0.207,0.543,0.480
14/04/2020 12:52:09.334,-0.172,0.836,0.328
14/04/2020 12:52:09.367,-0.223,1.055,0.535
14/04/2020 12:52:09.400,-0.473,0.469,0.457
14/04/2020 12:52:09.434,-0.602,1.098,0.211
14/04/2020 12:52:09.467,-0.934,0.570,0.410
14/04/2020 12:52:09.500,-1.238,0.781,0.336
14/04/2020 12:52:09.534,-1.266,0.938,0.313
14/04/2020 12:52:09.567,-0.961,0.719,0.309
14/04/2020 12:52:09.600,-0.906,0.711,0.328
14/04/2020 12:52:09.634,-0.863,0.637,0.457
14/04/2020 12:52:09.667,-0.773,0.555,0.422
14/04/2020 12:52:09.700,-0.820,0.336,0.438
14/04/2020 12:52:09.734,-0.770,0.281,0.574
14/04/2020 12:52:09.767,-0.715,0.191,0.652
14/04/2020 12:52:09.800,-0.766,0.109,0.766
14/04/2020 12:52:09.834,-1.047,0.477,0.781
14/04/2020 12:52:09.867,-1.078,0.742,0.414
14/04/2020 12:52:09.900,-0.879,0.441,0.449
14/04/2020 12:52:09.934,-0.660,0.629,0.621
14/04/2020 12:52:09.967,-0.375,0.547,0.711
14/04/2020 12:52:10.000,-0.176,0.516,0.586
14/04/2020 12:52:10.034,-0.098,0.500,0.590
14/04/2020 12:52:10.067,-0.090,0.535,0.652
14/04/2020 12:52:10.100,-0.105,0.570,0.520
14/04/2020 12:52:10.134,-0.102,0.840,0.320
14/04/2020 12:52:10.167,-0.113,0.875,0.457
14/04/2020 12:52:10.200,-0.148,0.684,0.391
14/04/2020 12:52:10.234,-0.414,0.875,0.238
14/04/2020 12:52:10.267,-0.625,0.922,0.316
14/04/2020 12:52:10.300,-0.887,0.648,0.508
14/04/2020 12:52:10.334,-0.758,0.977,0.387
14/04/2020 12:52:10.367,-0.801,0.738,0.434
14/04/2020 12:52:10.400,-0.797,0.848,0.379
14/04/2020 12:52:10.434,-0.871,0.879,0.277
14/04/2020 12:52:10.467,-0.957,0.680,0.379
14/04/2020 12:52:10.500,-1.063,0.602,0.473
14/04/2020 12:52:10.534,-0.887,0.422,0.363
14/04/2020 12:52:10.567,-0.789,0.461,0.422
14/04/2020 12:52:10.600,-0.852,0.570,0.309
14/04/2020 12:52:10.634,-0.754,0.355,0.258
14/04/2020 12:52:10.667,-0.578,0.301,0.391
14/04/2020 12:52:10.700,-0.531,0.438,0.637
14/04/2020 12:52:10.734,-0.469,0.395,0.949
14/04/2020 12:52:10.767,-0.559,0.707,1.043
14/04/2020 12:52:10.800,-0.648,1.078,0.645
14/04/2020 12:52:10.834,-0.496,0.988,0.449
14/04/2020 12:52:10.867,-0.242,0.918,0.477
14/04/2020 12:52:10.900,-0.082,0.855,0.625
14/04/2020 12:52:10.934,0.051,0.707,0.617
14/04/2020 12:52:10.967,0.027,0.688,0.633
14/04/2020 12:52:11.000,0.105,0.625,0.254
14/04/2020 12:52:11.034,-0.012,0.473,0.211
14/04/2020 12:52:11.067,-0.371,0.730,0.379
14/04/2020 12:52:11.100,-0.566,0.738,0.238
14/04/2020 12:52:11.134,-0.625,0.598,0.125
14/04/2020 12:52:11.167,-0.777,0.711,0.258
14/04/2020 12:52:11.200,-0.707,0.637,0.301
14/04/2020 12:52:11.234,-0.793,0.613,0.234
14/04/2020 12:52:11.267,-0.926,0.664,0.336
14/04/2020 12:52:11.300,-0.902,0.871,0.512
14/04/2020 12:52:11.334,-0.930,0.672,0.543
14/04/2020 12:52:11.367,-0.828,0.715,0.691
14/04/2020 12:52:11.400,-0.684,0.305,0.848
14/04/2020 12:52:11.434,-0.539,0.672,0.527
14/04/2020 12:52:11.467,-0.363,0.996,0.375
14/04/2020 12:52:11.500,-0.504,0.551,0.531
14/04/2020 12:52:11.534,-0.438,0.848,0.371
14/04/2020 12:52:11.567,-0.324,1.039,0.289
14/04/2020 12:52:11.600,-0.191,0.996,0.281
14/04/2020 12:52:11.634,-0.156,1.188,0.227
14/04/2020 12:52:11.667,-0.383,1.219,0.375
14/04/2020 12:52:11.700,-0.430,1.047,0.117
14/04/2020 12:52:11.734,-0.336,0.941,0.152
14/04/2020 12:52:11.767,-0.168,1.043,0.273
14/04/2020 12:52:11.800,-0.004,0.914,0.219
14/04/2020 12:52:11.834,0.023,0.801,0.156
14/04/2020 12:52:11.867,-0.016,0.734,0.250
14/04/2020 12:52:11.900,-0.137,0.648,0.320
14/04/2020 12:52:11.934,-0.133,0.500,0.234
14/04/2020 12:52:11.967,-0.184,0.734,0.426
14/04/2020 12:52:12.000,-0.211,0.668,0.430
14/04/2020 12:52:12.034,-0.293,0.688,0.309
14/04/2020 12:52:12.067,-0.398,0.465,0.367
14/04/2020 12:52:12.100,-0.473,0.633,0.258
14/04/2020 12:52:12.134,-0.527,0.930,0.215
14/04/2020 12:52:12.167,-0.758,0.727,0.211
14/04/2020 12:52:12.200,-1.098,0.941,0.262
14/04/2020 12:52:12.234,-1.051,0.879,0.414
14/04/2020 12:52:12.267,-0.895,1.398,0.289
14/04/2020 12:52:12.300,-0.574,1.355,0.219
14/04/2020 12:52:12.334,-0.418,0.770,0.219
14/04/2020 12:52:12.367,-0.348,0.711,0.227
14/04/2020 12:52:12.400,-0.422,0.813,0.215
14/04/2020 12:52:12.434,-0.527,0.855,0.227
14/04/2020 12:52:12.467,-0.461,0.840,0.121
14/04/2020 12:52:12.500,-0.461,0.770,0.184
14/04/2020 12:52:12.534,-0.414,0.738,0.195
14/04/2020 12:52:12.567,-0.414,0.766,0.188
14/04/2020 12:52:12.600,-0.434,0.863,0.234
14/04/2020 12:52:12.634,-0.406,0.875,0.281
14/04/2020 12:52:12.667,-0.414,0.855,0.336
14/04/2020 12:52:12.700,-0.383,0.816,0.332
14/04/2020 12:52:12.734,-0.363,0.785,0.336
14/04/2020 12:52:12.767,-0.387,0.820,0.391
14/04/2020 12:52:12.800,-0.340,0.934,0.309
14/04/2020 12:52:12.834,-0.262,0.992,0.113
14/04/2020 12:52:12.867,-0.434,1.121,0.434
14/04/2020 12:52:12.900,-0.520,1.152,0.293
14/04/2020 12:52:12.934,-0.434,0.969,0.207
14/04/2020 12:52:12.967,-0.273,0.961,0.305
14/04/2020 12:52:13.000,-0.105,1.027,0.141
14/04/2020 12:52:13.034,0.004,0.793,0.242
14/04/2020 12:52:13.067,-0.066,0.738,0.219
14/04/2020 12:52:13.100,-0.109,0.656,0.328
14/04/2020 12:52:13.134,-0.105,0.551,0.402
14/04/2020 12:52:13.167,-0.125,0.547,0.434
14/04/2020 12:52:13.200,-0.219,0.559,0.504
14/04/2020 12:52:13.234,-0.328,0.711,0.531
14/04/2020 12:52:13.267,-0.242,0.641,0.355
14/04/2020 12:52:13.300,-0.379,0.438,0.434
14/04/2020 12:52:13.334,-0.754,0.820,0.055
14/04/2020 12:52:13.367,-1.344,0.867,0.445
14/04/2020 12:52:13.400,-1.355,1.242,0.516
14/04/2020 12:52:13.434,-0.910,1.094,0.461
14/04/2020 12:52:13.467,-0.785,0.984,0.566
14/04/2020 12:52:13.500,-0.594,0.832,0.492
14/04/2020 12:52:13.534,-0.410,0.754,0.387
14/04/2020 12:52:13.567,-0.516,0.867,0.422
14/04/2020 12:52:13.600,-0.320,0.840,0.285
14/04/2020 12:52:13.634,-0.270,0.852,0.246
14/04/2020 12:52:13.667,-0.215,0.781,0.199
14/04/2020 12:52:13.700,0.012,0.820,-0.020
14/04/2020 12:52:13.734,-0.172,0.988,-0.027
14/04/2020 12:52:13.767,-0.488,1.301,0.262
14/04/2020 12:52:13.800,-0.313,1.129,-0.035
14/04/2020 12:52:13.834,-0.152,0.992,0.000
14/04/2020 12:52:13.867,-0.105,1.008,0.098
14/04/2020 12:52:13.900,0.035,1.086,0.098
14/04/2020 12:52:13.934,-0.094,1.074,0.223
14/04/2020 12:52:13.967,-0.164,0.984,0.406
14/04/2020 12:52:14.000,0.012,0.836,0.328
14/04/2020 12:52:14.034,-0.102,0.617,0.438
14/04/2020 12:52:14.067,-0.086,0.672,0.613
14/04/2020 12:52:14.100,0.000,0.648,0.387
14/04/2020 12:52:14.134,-0.129,0.906,0.625
14/04/2020 12:52:14.167,-0.055,0.641,0.664
14/04/2020 12:52:14.200,0.082,0.656,0.383
14/04/2020 12:52:14.234,-0.016,0.727,0.434
14/04/2020 12:52:14.267,-0.246,0.723,0.520
14/04/2020 12:52:14.300,-0.215,0.734,0.305
14/04/2020 12:52:14.334,-0.199,0.645,0.156
14/04/2020 12:52:14.367,-0.527,0.715,0.168
14/04/2020 12:52:14.400,-0.777,0.754,0.000
14/04/2020 12:52:14.434,-1.313,0.895,-0.063
14/04/2020 12:52:14.467,-1.523,0.809,0.055
14/04/2020 12:52:14.500,-1.320,0.574,-0.027
14/04/2020 12:52:14.534,-1.203,0.980,0.305
14/04/2020 12:52:14.567,-0.883,1.344,0.602
14/04/2020 12:52:14.600,-0.578,0.855,0.230
14/04/2020 12:52:14.634,-0.316,0.766,0.129
14/04/2020 12:52:14.667,-0.348,0.914,0.305
14/04/2020 12:52:14.700,-0.281,0.906,0.254
14/04/2020 12:52:14.734,-0.023,0.609,0.336
14/04/2020 12:52:14.767,0.012,0.625,0.598
14/04/2020 12:52:14.800,0.266,0.977,0.672
14/04/2020 12:52:14.834,-0.129,1.262,0.469
14/04/2020 12:52:14.867,-0.836,2.059,0.000
14/04/2020 12:52:14.900,-0.637,0.762,0.113
14/04/2020 12:52:14.934,-0.328,0.977,0.031
14/04/2020 12:52:14.967,-0.227,0.547,0.324
14/04/2020 12:52:15.000,-0.113,0.539,0.504
14/04/2020 12:52:15.034,-0.039,0.473,0.473
14/04/2020 12:52:15.067,0.031,0.367,0.355
14/04/2020 12:52:15.100,-0.035,0.441,0.297
14/04/2020 12:52:15.134,-0.094,0.582,0.262
14/04/2020 12:52:15.167,-0.098,0.754,0.211
14/04/2020 12:52:15.200,-0.371,0.875,-0.039
14/04/2020 12:52:15.234,-0.598,0.992,-0.250
14/04/2020 12:52:15.267,-1.102,1.051,-0.426
14/04/2020 12:52:15.300,-1.621,1.566,-0.250
14/04/2020 12:52:15.334,-1.047,1.719,0.285
14/04/2020 12:52:15.367,-0.539,0.914,-0.008
14/04/2020 12:52:15.400,-0.406,0.563,0.207
14/04/2020 12:52:15.434,-0.387,0.563,0.359
14/04/2020 12:52:15.467,-0.348,0.418,0.691
14/04/2020 12:52:15.500,-0.262,0.484,1.082
14/04/2020 12:52:15.534,-0.617,0.988,0.395
14/04/2020 12:52:15.567,-1.203,1.117,0.047
14/04/2020 12:52:15.600,-0.914,0.895,0.188
14/04/2020 12:52:15.634,-0.578,0.730,0.184
14/04/2020 12:52:15.667,-0.422,0.707,0.355
14/04/2020 12:52:15.700,-0.266,0.594,0.359
14/04/2020 12:52:15.734,-0.090,0.523,0.375
14/04/2020 12:52:15.767,-0.059,0.520,0.375
14/04/2020 12:52:15.800,-0.055,0.508,0.297
14/04/2020 12:52:15.834,-0.129,0.578,0.262
14/04/2020 12:52:15.867,-0.340,0.730,0.281
14/04/2020 12:52:15.900,-0.332,0.844,0.035
14/04/2020 12:52:15.934,-0.523,1.063,0.082
14/04/2020 12:52:15.967,-0.758,0.871,0.102
14/04/2020 12:52:16.000,-0.879,0.637,-0.121
14/04/2020 12:52:16.034,-1.027,0.777,0.023
14/04/2020 12:52:16.067,-1.207,1.141,0.219
14/04/2020 12:52:16.100,-1.074,0.863,0.117
14/04/2020 12:52:16.134,-0.891,0.754,0.102
14/04/2020 12:52:16.167,-0.758,0.809,0.164
14/04/2020 12:52:16.200,-0.637,0.723,0.238
14/04/2020 12:52:16.234,-0.578,0.688,0.156
14/04/2020 12:52:16.267,-0.656,0.828,0.191
14/04/2020 12:52:16.300,-0.605,0.820,0.254
14/04/2020 12:52:16.334,-0.531,0.750,0.188
14/04/2020 12:52:16.367,-0.480,0.730,0.152
14/04/2020 12:52:16.400,-0.492,0.738,0.219
14/04/2020 12:52:16.434,-0.531,0.719,0.164
14/04/2020 12:52:16.467,-0.465,0.762,0.090
14/04/2020 12:52:16.500,-0.492,0.785,0.160
14/04/2020 12:52:16.534,-0.430,0.801,0.145
14/04/2020 12:52:16.567,-0.465,0.820,0.117
14/04/2020 12:52:16.600,-0.477,0.820,0.129
14/04/2020 12:52:16.634,-0.430,0.844,0.137
14/04/2020 12:52:16.667,-0.555,0.871,0.242
14/04/2020 12:52:16.700,-0.684,0.785,0.313
14/04/2020 12:52:16.734,-0.656,0.699,0.305
14/04/2020 12:52:16.767,-0.602,0.684,0.316
14/04/2020 12:52:16.800,-0.672,0.684,0.379
14/04/2020 12:52:16.834,-0.762,0.629,0.457
14/04/2020 12:52:16.867,-0.758,0.633,0.426
14/04/2020 12:52:16.900,-0.844,0.691,0.508
14/04/2020 12:52:16.934,-0.926,0.859,0.363
14/04/2020 12:52:16.967,-0.848,0.715,0.207
14/04/2020 12:52:17.000,-0.777,0.668,0.297
14/04/2020 12:52:17.034,-0.586,0.680,0.414
14/04/2020 12:52:17.067,-0.434,0.617,0.414
14/04/2020 12:52:17.100,-0.359,0.500,0.461
14/04/2020 12:52:17.134,-0.285,0.469,0.527
14/04/2020 12:52:17.167,-0.242,0.473,0.441
14/04/2020 12:52:17.200,-0.227,0.426,0.402
14/04/2020 12:52:17.234,-0.242,0.492,0.496
14/04/2020 12:52:17.267,-0.320,0.625,0.445
14/04/2020 12:52:17.300,-0.363,0.652,0.355
14/04/2020 12:52:17.334,-0.539,0.816,0.281
14/04/2020 12:52:17.367,-0.770,0.801,0.395
14/04/2020 12:52:17.400,-0.977,0.656,0.320
14/04/2020 12:52:17.434,-1.188,0.715,0.246
14/04/2020 12:52:17.467,-1.348,0.785,0.449
14/04/2020 12:52:17.500,-1.105,0.801,0.367
14/04/2020 12:52:17.534,-0.957,0.648,0.348
14/04/2020 12:52:17.567,-0.801,0.578,0.492
14/04/2020 12:52:17.600,-0.699,0.637,0.449
14/04/2020 12:52:17.634,-0.723,0.574,0.395
14/04/2020 12:52:17.667,-0.711,0.578,0.445
14/04/2020 12:52:17.700,-0.695,0.566,0.484
14/04/2020 12:52:17.734,-0.734,0.492,0.445
14/04/2020 12:52:17.767,-0.758,0.508,0.367
14/04/2020 12:52:17.800,-0.758,0.570,0.387
14/04/2020 12:52:17.834,-0.738,0.602,0.430
14/04/2020 12:52:17.867,-0.688,0.504,0.398
14/04/2020 12:52:17.900,-0.641,0.461,0.379
14/04/2020 12:52:17.934,-0.645,0.578,0.402
14/04/2020 12:52:17.967,-0.742,0.688,0.445
14/04/2020 12:52:18.000,-0.789,0.652,0.414
14/04/2020 12:52:18.034,-0.789,0.746,0.395
14/04/2020 12:52:18.067,-0.777,0.844,0.242
14/04/2020 12:52:18.100,-0.652,0.891,0.121
14/04/2020 12:52:18.134,-0.527,0.922,0.289
14/04/2020 12:52:18.167,-0.375,0.953,0.258
14/04/2020 12:52:18.200,-0.270,0.879,0.289
14/04/2020 12:52:18.234,-0.125,0.805,0.254
14/04/2020 12:52:18.267,-0.094,0.766,0.324
14/04/2020 12:52:18.300,-0.055,0.750,0.352
14/04/2020 12:52:18.334,0.020,0.641,0.324
14/04/2020 12:52:18.367,0.035,0.621,0.359
14/04/2020 12:52:18.400,0.086,0.578,0.336
14/04/2020 12:52:18.434,0.145,0.563,0.246
14/04/2020 12:52:18.467,0.109,0.602,0.293
14/04/2020 12:52:18.500,-0.109,0.758,0.375
14/04/2020 12:52:18.534,-0.203,0.703,0.219
14/04/2020 12:52:18.567,-0.480,0.969,0.246
14/04/2020 12:52:18.600,-0.785,0.926,0.285
14/04/2020 12:52:18.634,-1.035,1.277,0.152
14/04/2020 12:52:18.667,-1.086,1.305,0.156
14/04/2020 12:52:18.700,-0.965,1.055,0.180
14/04/2020 12:52:18.734,-0.941,0.867,0.238
14/04/2020 12:52:18.767,-0.695,0.863,0.332
14/04/2020 12:52:18.800,-0.602,0.840,0.355
14/04/2020 12:52:18.834,-0.617,0.781,0.309
14/04/2020 12:52:18.867,-0.609,0.742,0.297
14/04/2020 12:52:18.900,-0.543,0.652,0.344
14/04/2020 12:52:18.934,-0.449,0.434,0.379
14/04/2020 12:52:18.967,-0.473,0.445,0.465
14/04/2020 12:52:19.000,-0.445,0.320,0.602
14/04/2020 12:52:19.034,-0.652,0.582,0.648
14/04/2020 12:52:19.067,-0.973,0.824,0.480
14/04/2020 12:52:19.100,-1.176,1.055,0.355
14/04/2020 12:52:19.134,-1.051,0.602,0.363
14/04/2020 12:52:19.167,-0.664,0.684,0.523
14/04/2020 12:52:19.200,-0.375,0.645,0.621
14/04/2020 12:52:19.234,-0.145,0.520,0.707
14/04/2020 12:52:19.267,0.027,0.414,0.617
14/04/2020 12:52:19.300,0.035,0.316,0.586
14/04/2020 12:52:19.334,0.027,0.465,0.605
14/04/2020 12:52:19.367,0.004,0.680,0.402
14/04/2020 12:52:19.400,-0.148,0.926,0.402
14/04/2020 12:52:19.434,-0.359,0.723,0.418
14/04/2020 12:52:19.467,-0.805,0.941,0.383
14/04/2020 12:52:19.500,-1.004,1.008,0.336
14/04/2020 12:52:19.534,-1.156,1.055,0.613
14/04/2020 12:52:19.567,-0.988,0.984,0.523
14/04/2020 12:52:19.600,-0.797,0.598,0.422
14/04/2020 12:52:19.634,-0.621,0.668,0.508
14/04/2020 12:52:19.667,-0.797,0.613,0.496
14/04/2020 12:52:19.700,-0.824,0.523,0.395
14/04/2020 12:52:19.734,-0.727,0.559,0.512
14/04/2020 12:52:19.767,-0.727,0.609,0.480
14/04/2020 12:52:19.800,-0.535,0.453,0.461
14/04/2020 12:52:19.834,-0.500,0.387,0.664
14/04/2020 12:52:19.867,-0.563,0.410,0.930
14/04/2020 12:52:19.900,-0.914,0.898,0.695
14/04/2020 12:52:19.934,-0.734,0.891,0.195
14/04/2020 12:52:19.967,-0.422,0.652,0.441
14/04/2020 12:52:20.000,-0.074,0.707,0.648
14/04/2020 12:52:20.034,0.063,0.516,0.578
14/04/2020 12:52:20.067,0.059,0.406,0.539
14/04/2020 12:52:20.100,0.137,0.426,0.563
14/04/2020 12:52:20.134,0.043,0.582,0.449
14/04/2020 12:52:20.167,-0.043,0.590,0.117
14/04/2020 12:52:20.200,-0.383,1.051,0.496
14/04/2020 12:52:20.234,-0.473,1.094,0.266
14/04/2020 12:52:20.267,-0.516,0.852,0.180
14/04/2020 12:52:20.300,-0.930,1.250,0.586
14/04/2020 12:52:20.334,-0.801,1.063,0.277
14/04/2020 12:52:20.367,-0.895,0.852,0.375
14/04/2020 12:52:20.400,-0.984,0.977,0.988
14/04/2020 12:52:20.434,-0.660,0.629,0.480
14/04/2020 12:52:20.467,-0.629,0.500,0.301
14/04/2020 12:52:20.500,-0.707,0.566,0.359
14/04/2020 12:52:20.534,-0.695,0.621,0.398
14/04/2020 12:52:20.567,-0.617,0.652,0.602
14/04/2020 12:52:20.600,-0.414,0.578,0.660
14/04/2020 12:52:20.634,-0.273,0.539,0.797
14/04/2020 12:52:20.667,-0.391,0.961,0.828
14/04/2020 12:52:20.700,-0.363,1.215,0.207
14/04/2020 12:52:20.734,-0.266,0.891,0.367
14/04/2020 12:52:20.767,0.008,0.945,0.488
14/04/2020 12:52:20.800,0.117,0.730,0.496
14/04/2020 12:52:20.834,0.051,0.672,0.527
14/04/2020 12:52:20.867,0.121,0.602,0.563
14/04/2020 12:52:20.900,0.109,0.566,0.535
14/04/2020 12:52:20.934,0.094,0.539,0.363
14/04/2020 12:52:20.967,-0.047,0.727,0.199
14/04/2020 12:52:21.000,-0.293,0.691,0.277
14/04/2020 12:52:21.034,-0.410,0.395,0.160
14/04/2020 12:52:21.067,-0.637,0.559,0.070
14/04/2020 12:52:21.100,-1.047,0.785,0.367
14/04/2020 12:52:21.134,-1.434,1.250,0.375
14/04/2020 12:52:21.167,-1.289,0.641,0.676
14/04/2020 12:52:21.200,-0.855,1.133,0.543
14/04/2020 12:52:21.234,-0.832,0.930,0.340
14/04/2020 12:52:21.267,-0.605,0.766,0.359
14/04/2020 12:52:21.300,-0.375,0.738,0.352
14/04/2020 12:52:21.334,-0.273,0.676,0.289
14/04/2020 12:52:21.367,0.047,0.793,0.418
14/04/2020 12:52:21.400,0.168,1.574,0.703
14/04/2020 12:52:21.434,-0.023,1.645,0.563
14/04/2020 12:52:21.467,0.027,1.176,-0.063
14/04/2020 12:52:21.500,-0.109,0.918,0.156
14/04/2020 12:52:21.534,-0.004,0.805,0.273
14/04/2020 12:52:21.567,0.102,0.715,0.422
14/04/2020 12:52:21.600,0.113,0.508,0.242
14/04/2020 12:52:21.634,0.051,0.289,0.137
14/04/2020 12:52:21.667,-0.301,0.418,0.359
14/04/2020 12:52:21.700,-0.371,0.742,0.363
14/04/2020 12:52:21.734,-0.258,0.328,0.246
14/04/2020 12:52:21.767,-0.449,0.691,0.172
14/04/2020 12:52:21.800,-0.809,0.738,0.234
14/04/2020 12:52:21.834,-1.105,0.852,0.305
14/04/2020 12:52:21.867,-1.074,1.098,0.500
14/04/2020 12:52:21.900,-1.020,0.859,0.477
14/04/2020 12:52:21.934,-1.027,0.766,0.516
14/04/2020 12:52:21.967,-0.922,0.996,0.898
14/04/2020 12:52:22.000,-0.469,1.016,0.582
14/04/2020 12:52:22.034,-0.008,0.969,0.090
14/04/2020 12:52:22.067,0.117,0.980,-0.098
14/04/2020 12:52:22.100,0.250,1.313,-0.234
14/04/2020 12:52:22.134,-0.039,1.473,-0.258
14/04/2020 12:52:22.167,-0.145,1.219,0.109
14/04/2020 12:52:22.200,-0.082,0.852,0.293
14/04/2020 12:52:22.234,-0.082,0.801,0.230
14/04/2020 12:52:22.267,-0.070,0.742,0.195
14/04/2020 12:52:22.300,-0.082,0.590,0.145
14/04/2020 12:52:22.334,-0.148,0.430,0.176
14/04/2020 12:52:22.367,-0.227,0.336,0.184
14/04/2020 12:52:22.400,-0.324,0.727,0.246
14/04/2020 12:52:22.434,-0.129,1.043,0.148
14/04/2020 12:52:22.467,-0.402,0.859,0.133
14/04/2020 12:52:22.500,-0.648,1.047,0.176
14/04/2020 12:52:22.534,-1.156,0.957,0.313
14/04/2020 12:52:22.567,-0.941,1.109,0.422
14/04/2020 12:52:22.600,-0.875,1.383,0.211
14/04/2020 12:52:22.634,-0.844,0.680,0.109
14/04/2020 12:52:22.667,-0.609,0.539,0.418
14/04/2020 12:52:22.700,-0.566,0.465,0.453
14/04/2020 12:52:22.734,-0.680,0.730,0.305
14/04/2020 12:52:22.767,-0.711,0.750,0.262
14/04/2020 12:52:22.800,-0.574,0.746,0.184
14/04/2020 12:52:22.834,-0.477,0.750,0.176
14/04/2020 12:52:22.867,-0.465,0.684,0.148
14/04/2020 12:52:22.900,-0.465,0.793,0.086
14/04/2020 12:52:22.934,-0.391,0.879,-0.051
14/04/2020 12:52:22.967,-0.359,0.980,0.070
14/04/2020 12:52:23.000,-0.531,1.008,0.234
14/04/2020 12:52:23.034,-0.449,1.090,-0.086
14/04/2020 12:52:23.067,-0.258,0.980,0.145
14/04/2020 12:52:23.100,-0.023,1.000,0.199
14/04/2020 12:52:23.134,0.148,0.898,0.117
14/04/2020 12:52:23.167,0.242,0.762,0.297
14/04/2020 12:52:23.200,0.188,0.695,0.266
14/04/2020 12:52:23.234,0.195,0.660,0.059
14/04/2020 12:52:23.267,0.094,0.641,0.008
14/04/2020 12:52:23.300,-0.152,0.738,-0.020
14/04/2020 12:52:23.334,-0.344,0.852,-0.117
14/04/2020 12:52:23.367,-0.594,0.805,-0.164
14/04/2020 12:52:23.400,-1.066,1.012,0.008
14/04/2020 12:52:23.434,-1.195,1.148,-0.473
14/04/2020 12:52:23.467,-1.262,0.836,-0.652
14/04/2020 12:52:23.500,-1.324,0.387,-0.047
14/04/2020 12:52:23.534,-1.172,0.969,0.477
14/04/2020 12:52:23.567,-0.793,0.957,0.391
14/04/2020 12:52:23.600,-0.605,0.766,0.344
14/04/2020 12:52:23.634,-0.441,0.855,0.352
14/04/2020 12:52:23.667,-0.223,0.855,0.410
14/04/2020 12:52:23.700,-0.098,0.750,0.395
14/04/2020 12:52:23.734,-0.023,0.750,0.434
14/04/2020 12:52:23.767,0.043,0.813,0.555
14/04/2020 12:52:23.800,-0.027,1.145,0.590
14/04/2020 12:52:23.834,-0.383,1.445,0.359
14/04/2020 12:52:23.867,-0.254,1.203,0.082
14/04/2020 12:52:23.900,-0.195,0.906,-0.004
14/04/2020 12:52:23.934,-0.113,0.883,0.098
14/04/2020 12:52:23.967,-0.008,0.820,0.176
14/04/2020 12:52:24.000,0.039,0.738,0.262
14/04/2020 12:52:24.034,0.129,0.574,0.203
14/04/2020 12:52:24.067,0.121,0.563,0.188
14/04/2020 12:52:24.100,-0.023,0.559,0.246
14/04/2020 12:52:24.134,-0.145,0.520,0.285
14/04/2020 12:52:24.167,-0.211,0.449,0.254
14/04/2020 12:52:24.200,-0.324,0.602,0.117
14/04/2020 12:52:24.234,-0.590,0.746,0.234
14/04/2020 12:52:24.267,-0.918,1.047,0.281
14/04/2020 12:52:24.300,-1.133,0.895,0.480
14/04/2020 12:52:24.334,-1.133,1.082,0.426
14/04/2020 12:52:24.367,-0.789,1.297,0.598
14/04/2020 12:52:24.400,-0.434,1.063,0.328
14/04/2020 12:52:24.434,-0.406,0.699,0.164
14/04/2020 12:52:24.467,-0.426,0.809,0.270
14/04/2020 12:52:24.500,-0.434,0.953,0.133
14/04/2020 12:52:24.534,-0.512,1.066,0.039
14/04/2020 12:52:24.567,-0.422,0.871,0.195
14/04/2020 12:52:24.600,-0.383,0.906,0.004
14/04/2020 12:52:24.634,-0.504,0.961,0.125
14/04/2020 12:52:24.667,-0.418,0.855,0.199
14/04/2020 12:52:24.700,-0.410,0.914,0.137
14/04/2020 12:52:24.734,-0.492,0.949,0.145
14/04/2020 12:52:24.767,-0.473,0.836,0.180
14/04/2020 12:52:24.800,-0.469,0.852,0.203
14/04/2020 12:52:24.834,-0.430,0.902,0.160
14/04/2020 12:52:24.867,-0.426,0.949,0.047
14/04/2020 12:52:24.900,-0.414,0.879,-0.031
14/04/2020 12:52:24.934,-0.387,0.918,0.004
14/04/2020 12:52:24.967,-0.324,0.914,-0.074
14/04/2020 12:52:25.000,-0.453,0.859,-0.043
14/04/2020 12:52:25.034,-0.438,0.875,0.098
14/04/2020 12:52:25.067,-0.469,0.945,0.266
14/04/2020 12:52:25.100,-0.324,0.938,0.059
14/04/2020 12:52:25.134,-0.289,0.930,0.082
14/04/2020 12:52:25.167,-0.262,1.008,0.180
14/04/2020 12:52:25.200,-0.121,0.891,0.102
14/04/2020 12:52:25.234,-0.031,0.859,0.117
14/04/2020 12:52:25.267,0.016,0.750,0.133
14/04/2020 12:52:25.300,0.047,0.637,0.176
14/04/2020 12:52:25.334,0.090,0.496,0.254
14/04/2020 12:52:25.367,0.020,0.625,0.316
14/04/2020 12:52:25.400,-0.035,0.711,0.512
14/04/2020 12:52:25.434,-0.230,0.762,0.605
14/04/2020 12:52:25.467,-0.430,1.059,0.578
14/04/2020 12:52:25.500,-0.902,1.176,0.641
14/04/2020 12:52:25.534,-1.063,1.457,0.625
14/04/2020 12:52:25.567,-0.773,1.297,0.609
14/04/2020 12:52:25.600,-0.570,0.918,0.574
14/04/2020 12:52:25.634,-0.469,0.703,0.488
14/04/2020 12:52:25.667,-0.402,0.719,0.359
14/04/2020 12:52:25.700,-0.379,0.816,0.230
14/04/2020 12:52:25.734,-0.391,0.926,0.230
14/04/2020 12:52:25.767,-0.285,0.859,0.070
14/04/2020 12:52:25.800,-0.254,0.758,0.070
14/04/2020 12:52:25.834,-0.250,0.918,0.082
14/04/2020 12:52:25.867,-0.371,0.961,0.117
14/04/2020 12:52:25.900,-0.477,0.980,0.164
14/04/2020 12:52:25.934,-0.461,1.043,0.105
14/04/2020 12:52:25.967,-0.383,0.973,0.227
14/04/2020 12:52:26.000,-0.152,0.914,0.320
14/04/2020 12:52:26.034,0.043,1.020,0.066
14/04/2020 12:52:26.067,0.195,0.922,0.195
14/04/2020 12:52:26.100,0.359,0.801,0.309
14/04/2020 12:52:26.134,0.297,0.887,0.258
14/04/2020 12:52:26.167,0.344,0.711,0.363
14/04/2020 12:52:26.200,0.297,0.672,0.395
14/04/2020 12:52:26.234,0.184,0.703,0.313
14/04/2020 12:52:26.267,0.066,0.766,0.250
14/04/2020 12:52:26.300,0.047,0.801,0.203
14/04/2020 12:52:26.334,-0.012,0.738,0.156
14/04/2020 12:52:26.367,-0.191,1.004,0.113
14/04/2020 12:52:26.400,-0.375,1.066,0.184
14/04/2020 12:52:26.434,-0.520,0.488,0.047
14/04/2020 12:52:26.467,-0.879,0.973,-0.090
14/04/2020 12:52:26.500,-0.949,0.805,-0.090
14/04/2020 12:52:26.534,-0.938,0.953,-0.008
14/04/2020 12:52:26.567,-0.977,0.582,-0.008
14/04/2020 12:52:26.600,-1.094,0.777,0.203
14/04/2020 12:52:26.634,-1.039,0.980,0.242
14/04/2020 12:52:26.667,-0.992,1.242,0.383
14/04/2020 12:52:26.700,-0.680,1.074,0.398
14/04/2020 12:52:26.734,-0.293,0.664,0.340
14/04/2020 12:52:26.767,-0.105,0.656,0.406
14/04/2020 12:52:26.800,-0.141,0.836,0.500
14/04/2020 12:52:26.834,0.121,0.684,0.629
14/04/2020 12:52:26.867,0.336,0.746,0.824
14/04/2020 12:52:26.900,0.105,1.414,0.785
14/04/2020 12:52:26.934,-0.336,1.527,-0.094
14/04/2020 12:52:26.967,-0.172,0.926,0.004
14/04/2020 12:52:27.000,-0.164,1.035,0.375
14/04/2020 12:52:27.034,-0.027,0.859,0.438
14/04/2020 12:52:27.067,0.137,0.648,0.500
14/04/2020 12:52:27.100,0.277,0.551,0.477
14/04/2020 12:52:27.134,0.301,0.508,0.418
14/04/2020 12:52:27.167,0.082,0.594,0.352
14/04/2020 12:52:27.200,-0.180,0.887,0.180
14/04/2020 12:52:27.234,-0.477,0.785,0.258
14/04/2020 12:52:27.267,-0.922,0.605,0.105
14/04/2020 12:52:27.300,-1.219,0.660,-0.063
14/04/2020 12:52:27.334,-1.422,0.734,-0.168
14/04/2020 12:52:27.367,-1.387,0.301,-0.039
14/04/2020 12:52:27.400,-1.523,0.770,0.262
14/04/2020 12:52:27.434,-1.270,0.672,0.516
14/04/2020 12:52:27.467,-0.953,0.996,0.406
14/04/2020 12:52:27.500,-0.695,0.961,0.387
14/04/2020 12:52:27.534,-0.313,0.777,0.277
14/04/2020 12:52:27.567,-0.141,0.695,0.387
14/04/2020 12:52:27.600,0.008,0.652,0.512
14/04/2020 12:52:27.634,0.125,0.617,0.578
14/04/2020 12:52:27.667,0.129,0.801,0.648
14/04/2020 12:52:27.700,0.082,1.301,0.906
14/04/2020 12:52:27.734,-0.500,1.238,0.625
14/04/2020 12:52:27.767,-0.207,0.996,0.023
14/04/2020 12:52:27.800,-0.129,0.730,0.250
14/04/2020 12:52:27.834,-0.145,0.844,0.422
14/04/2020 12:52:27.867,-0.043,0.582,0.520
14/04/2020 12:52:27.900,0.023,0.477,0.520
14/04/2020 12:52:27.934,0.090,0.477,0.406
14/04/2020 12:52:27.967,0.039,0.508,0.434
14/04/2020 12:52:28.000,-0.238,0.680,0.492
14/04/2020 12:52:28.034,-0.207,0.594,0.277
14/04/2020 12:52:28.067,-0.316,0.715,0.137
14/04/2020 12:52:28.100,-0.992,0.938,0.086
14/04/2020 12:52:28.134,-1.660,1.258,0.055
14/04/2020 12:52:28.167,-1.309,1.398,0.535
14/04/2020 12:52:28.200,-0.926,1.043,0.484
14/04/2020 12:52:28.234,-0.676,0.777,0.379
14/04/2020 12:52:28.267,-0.508,0.629,0.273
14/04/2020 12:52:28.300,-0.367,0.559,0.332
14/04/2020 12:52:28.334,-0.313,0.613,0.480
14/04/2020 12:52:28.367,-0.219,0.531,0.578
14/04/2020 12:52:28.400,-0.082,0.480,0.742
14/04/2020 12:52:28.434,0.004,0.590,1.082
14/04/2020 12:52:28.467,-0.273,1.043,1.117
14/04/2020 12:52:28.500,-0.543,1.117,0.879
14/04/2020 12:52:28.534,-0.484,0.895,0.430
14/04/2020 12:52:28.567,-0.332,0.574,0.340
14/04/2020 12:52:28.600,-0.336,0.648,0.742
14/04/2020 12:52:28.634,-0.211,0.473,0.762
14/04/2020 12:52:28.667,-0.039,0.340,0.652
14/04/2020 12:52:28.700,0.031,0.348,0.711
14/04/2020 12:52:28.734,0.031,0.352,0.734
14/04/2020 12:52:28.767,-0.023,0.473,0.484
14/04/2020 12:52:28.800,0.016,0.508,0.234
14/04/2020 12:52:28.834,-0.148,0.410,0.188
14/04/2020 12:52:28.867,-0.469,0.688,0.266
14/04/2020 12:52:28.900,-0.922,0.797,0.078
14/04/2020 12:52:28.934,-1.738,0.770,0.156
14/04/2020 12:52:28.967,-1.730,0.820,0.168
14/04/2020 12:52:29.000,-1.461,0.719,0.211
14/04/2020 12:52:29.034,-1.285,1.035,0.625
14/04/2020 12:52:29.067,-0.809,1.348,0.781
14/04/2020 12:52:29.100,-0.465,0.793,0.418
14/04/2020 12:52:29.134,-0.246,0.711,0.176
14/04/2020 12:52:29.167,-0.270,0.813,0.359
14/04/2020 12:52:29.200,-0.211,0.750,0.477
14/04/2020 12:52:29.234,-0.008,0.547,0.574
14/04/2020 12:52:29.267,0.039,0.480,0.563
14/04/2020 12:52:29.300,0.113,0.316,0.563
14/04/2020 12:52:29.334,0.156,0.301,0.863
14/04/2020 12:52:29.367,0.121,0.473,1.086
14/04/2020 12:52:29.400,-0.164,1.746,0.523
14/04/2020 12:52:29.434,-0.609,2.172,0.176
14/04/2020 12:52:29.467,-0.609,0.754,0.188
14/04/2020 12:52:29.500,-0.250,1.070,0.449
14/04/2020 12:52:29.534,0.063,0.727,0.676
14/04/2020 12:52:29.567,0.160,0.488,0.691
14/04/2020 12:52:29.600,0.184,0.445,0.711
14/04/2020 12:52:29.634,0.199,0.426,0.648
14/04/2020 12:52:29.667,0.203,0.488,0.473
14/04/2020 12:52:29.700,0.105,0.492,0.383
14/04/2020 12:52:29.734,-0.113,0.676,0.461
14/04/2020 12:52:29.767,-0.168,0.801,0.203
14/04/2020 12:52:29.800,-0.156,0.613,-0.043
14/04/2020 12:52:29.834,-0.668,0.691,0.098
14/04/2020 12:52:29.867,-1.055,0.957,0.000
14/04/2020 12:52:29.900,-1.480,0.438,-0.121
14/04/2020 12:52:29.934,-1.988,1.313,0.328
14/04/2020 12:52:29.967,-1.402,1.484,0.598
14/04/2020 12:52:30.000,-1.078,1.047,0.262
14/04/2020 12:52:30.034,-0.613,0.867,0.000
14/04/2020 12:52:30.067,-0.379,0.918,0.086
14/04/2020 12:52:30.100,-0.297,1.016,0.379
14/04/2020 12:52:30.134,0.027,0.973,0.672
14/04/2020 12:52:30.167,0.090,0.750,0.551
14/04/2020 12:52:30.200,0.074,0.605,0.422
14/04/2020 12:52:30.234,0.137,0.414,0.379
14/04/2020 12:52:30.267,0.211,0.332,0.547
14/04/2020 12:52:30.300,0.309,0.281,0.871
14/04/2020 12:52:30.334,0.441,1.063,0.660
14/04/2020 12:52:30.367,0.090,1.285,0.523
14/04/2020 12:52:30.400,-0.875,2.797,-0.070
14/04/2020 12:52:30.434,-0.535,0.723,0.027
14/04/2020 12:52:30.467,-0.246,0.980,0.320
14/04/2020 12:52:30.500,-0.082,0.645,0.574
14/04/2020 12:52:30.534,0.125,0.434,0.508
14/04/2020 12:52:30.567,0.262,0.367,0.477
14/04/2020 12:52:30.600,0.211,0.445,0.422
14/04/2020 12:52:30.634,0.094,0.492,0.211
14/04/2020 12:52:30.667,0.012,0.703,-0.055
14/04/2020 12:52:30.700,-0.238,0.672,0.074
14/04/2020 12:52:30.734,-0.750,0.707,-0.098
14/04/2020 12:52:30.767,-1.234,1.148,-0.262
14/04/2020 12:52:30.800,-1.898,1.617,-0.465
14/04/2020 12:52:30.834,-1.332,1.770,0.156
14/04/2020 12:52:30.867,-0.730,1.324,0.211
14/04/2020 12:52:30.900,-0.141,0.715,-0.023
14/04/2020 12:52:30.934,-0.145,0.766,-0.113
14/04/2020 12:52:30.967,-0.250,0.980,0.199
14/04/2020 12:52:31.000,-0.172,0.922,0.414
14/04/2020 12:52:31.034,-0.051,0.629,0.348
14/04/2020 12:52:31.067,-0.121,0.680,0.352
14/04/2020 12:52:31.100,-0.184,1.133,0.641
14/04/2020 12:52:31.134,-0.398,1.227,0.453
14/04/2020 12:52:31.167,-0.398,1.301,-0.051
14/04/2020 12:52:31.200,-0.285,0.879,0.102
14/04/2020 12:52:31.234,-0.070,0.887,0.254
14/04/2020 12:52:31.267,0.180,0.805,0.328
14/04/2020 12:52:31.300,0.129,0.664,0.406
14/04/2020 12:52:31.334,0.199,0.586,0.344
14/04/2020 12:52:31.367,0.266,0.582,0.191
14/04/2020 12:52:31.400,0.086,0.508,0.188
14/04/2020 12:52:31.434,-0.168,0.676,0.098
14/04/2020 12:52:31.467,-0.520,0.703,0.270
14/04/2020 12:52:31.500,-0.664,0.695,0.027
14/04/2020 12:52:31.534,-0.930,0.668,0.027
14/04/2020 12:52:31.567,-1.199,1.004,-0.133
14/04/2020 12:52:31.600,-1.258,1.379,0.441
14/04/2020 12:52:31.634,-0.672,1.434,0.559
14/04/2020 12:52:31.667,-0.504,0.766,0.367
14/04/2020 12:52:31.700,-0.488,0.652,0.508
14/04/2020 12:52:31.734,-0.453,0.625,0.328
14/04/2020 12:52:31.767,-0.648,0.793,0.422
14/04/2020 12:52:31.800,-0.586,0.828,0.379
14/04/2020 12:52:31.834,-0.480,0.934,0.508
14/04/2020 12:52:31.867,-0.441,0.855,0.488
14/04/2020 12:52:31.900,-0.434,0.770,0.512
14/04/2020 12:52:31.934,-0.363,0.762,0.371
14/04/2020 12:52:31.967,-0.250,0.891,0.250
14/04/2020 12:52:32.000,-0.211,0.832,0.258
14/04/2020 12:52:32.034,-0.063,0.883,0.020
14/04/2020 12:52:32.067,-0.078,1.063,-0.156
14/04/2020 12:52:32.100,-0.344,1.305,-0.219
14/04/2020 12:52:32.134,-0.180,1.430,-0.098
14/04/2020 12:52:32.167,-0.445,0.906,0.262
14/04/2020 12:52:32.200,-0.316,0.820,0.234
14/04/2020 12:52:32.234,-0.094,0.848,0.148
14/04/2020 12:52:32.267,-0.098,0.801,0.223
14/04/2020 12:52:32.300,-0.016,0.691,0.180
14/04/2020 12:52:32.334,0.047,0.652,0.152
14/04/2020 12:52:32.367,-0.066,0.625,0.227
14/04/2020 12:52:32.400,-0.066,0.492,0.273
14/04/2020 12:52:32.434,-0.102,0.645,0.188
14/04/2020 12:52:32.467,-0.207,0.930,0.270
14/04/2020 12:52:32.500,-0.344,0.980,0.234
14/04/2020 12:52:32.534,-0.563,0.934,0.141
14/04/2020 12:52:32.567,-0.934,1.027,0.082
14/04/2020 12:52:32.600,-1.164,1.141,0.363
14/04/2020 12:52:32.634,-0.863,1.391,0.164
14/04/2020 12:52:32.667,-0.672,0.926,0.113
14/04/2020 12:52:32.700,-0.563,0.738,0.320
14/04/2020 12:52:32.734,-0.535,0.707,0.336
14/04/2020 12:52:32.767,-0.555,0.953,0.184
